aX,aY,aZ,gX,gY,gZ,mX,mY,mZ,Result
-2544,14340,-6864,3840,-335,-1518,-1760,-1,-1,1
-2380,14188,-5644,3888,1635,-9604,-2419,-1,-1,1
-524,14480,-7148,3888,-1663,-1491,311,-1,-1,1
-528,15052,-6672,3904,461,-4012,-1424,-1,-1,1
-2808,14040,-5936,3904,595,-339,13,-1,-1,1
152,14872,-6996,3936,704,984,-671,-1,-1,1
-636,14988,-6836,3936,1622,-3290,-1317,-1,-1,1
-716,14388,-7040,3952,296,179,-1085,-1,-1,1
-2456,14196,-7584,3952,-960,-91,-135,-1,-1,1
-2008,14092,-7136,3952,-448,-321,-58,-1,-1,1
-1224,14264,-6732,3952,-1394,2425,1557,-1,-1,1
1356,11692,-11328,3952,48,530,75,-1,-1,1
-80,14880,-7036,3968,1145,3629,638,-1,-1,1
-1524,14348,-6936,3968,1421,-101,-782,-1,-1,1
-1784,14440,-6996,3968,-389,-341,538,-1,-1,1
-1840,14336,-7012,3968,-834,941,107,-1,-1,1
-1940,14320,-6380,3968,-798,-113,-116,-1,-1,1
-672,14648,-6540,3968,565,3321,205,-1,-1,1
-1832,14900,-7552,3968,2363,-2584,-1037,-1,-1,1
-2032,14500,-6768,3968,-418,2806,723,-1,-1,1
-2572,14224,-6916,3968,-666,-649,-332,-1,-1,1
-2780,14168,-6076,3968,441,-2126,-660,-1,-1,1
-3300,14480,-6128,3968,-1284,1733,348,-1,-1,1
-2688,14792,-6552,3968,899,2239,-24,-1,-1,1
-3584,13460,-5128,3968,50,1316,-516,-1,-1,1
-1864,14436,-7044,4000,-1123,1745,794,-1,-1,1
-2224,14548,-6788,4000,98,1774,300,-1,-1,1
-2176,14712,-7248,4000,377,-1188,-55,-1,-1,1
-1548,14228,-7416,4000,982,1099,355,-1,-1,1
-1912,14780,-6984,4000,-357,3912,682,-1,-1,1
-1692,14680,-6708,4000,1907,264,-542,-1,-1,1
-1724,14296,-6692,4000,1756,-916,-820,-1,-1,1
-3584,14504,-7476,4000,1392,-7325,-3206,-1,-1,1
-1472,14284,-6772,4000,-729,3080,1302,-1,-1,1
-2592,14408,-6464,4000,-1113,-256,-403,-1,-1,1
-2648,14468,-6784,4000,712,2516,337,-1,-1,1
400,14756,-6148,4000,352,3288,2294,-1,-1,1
-3328,14800,-6140,4000,651,-2025,-763,-1,-1,1
-1120,14808,-7056,4016,-396,-2127,-132,-1,-1,1
-552,14416,-6392,4016,1186,-5792,-2180,-1,-1,1
-1888,14788,-6984,4016,115,361,-482,-1,-1,1
-1348,14544,-6768,4016,-895,3480,1261,-1,-1,1
-776,14904,-6796,4016,2097,-3306,-2033,-1,-1,1
-1452,14832,-6664,4016,1800,-5646,-2385,-1,-1,1
-1804,13896,-6400,4016,-851,3284,1550,-1,-1,1
-1680,15344,-7464,4016,-984,2481,180,-1,-1,1
-496,14748,-6756,4016,1041,-378,-990,-1,-1,1
-1360,13936,-6664,4016,-45,-3926,-1182,-1,-1,1
-1620,14528,-6692,4016,4,2340,651,-1,-1,1
-2792,14332,-7168,4016,-662,1701,1156,-1,-1,1
-3356,14280,-7188,4016,-467,-1402,-1275,-1,-1,1
-1328,14100,-6392,4016,-280,2935,102,-1,-1,1
-3120,14536,-6764,4016,62,-822,-433,-1,-1,1
-2752,14348,-6812,4016,385,-1240,-104,-1,-1,1
-3144,15104,-6944,4016,-408,78,-493,-1,-1,1
-2996,14984,-6836,4016,535,-113,-1109,-1,-1,1
-2500,14420,-6116,4016,808,-50,741,-1,-1,1
-3192,14412,-6484,4016,-544,4708,1767,-1,-1,1
-2644,14436,-5940,4016,-719,687,-551,-1,-1,1
1360,11612,-11340,4016,47,806,64,-1,-1,1
-7240,668,-14152,4048,-26,395,-57,-1,-1,0
-7328,800,-14288,4048,31,257,-25,-1,-1,0
-2352,14644,-6756,4048,-1689,1577,89,-1,-1,1
-1192,14900,-7228,4048,1560,2881,636,-1,-1,1
-924,14144,-6428,4048,633,2957,-66,-1,-1,1
-1848,14660,-6932,4048,-789,781,638,-1,-1,1
-1980,13964,-6660,4048,-174,529,216,-1,-1,1
-2980,14784,-7140,4048,648,-874,-711,-1,-1,1
-1364,14316,-6536,4048,-680,2794,321,-1,-1,1
-1572,14516,-6292,4048,-106,-1627,-1391,-1,-1,1
-2628,15140,-7476,4048,-24,1515,414,-1,-1,1
-1920,14392,-6524,4048,1313,1085,-16,-1,-1,1
-2544,14564,-7076,4048,-1819,2910,953,-1,-1,1
-2064,14680,-6604,4048,-337,-926,-100,-1,-1,1
-1396,14424,-6584,4048,597,3178,1622,-1,-1,1
-2404,14596,-6848,4048,980,1568,910,-1,-1,1
-2244,14564,-6416,4048,-7,1015,164,-1,-1,1
-2172,15120,-6548,4048,1746,-2276,-1699,-1,-1,1
-1992,14480,-6484,4048,-181,785,-29,-1,-1,1
-1776,14656,-5112,4048,211,2139,861,-1,-1,1
-4280,14908,-6384,4048,1927,-5447,-2677,-1,-1,1
-2108,14884,-6768,4048,-623,-123,410,-1,-1,1
-2152,14540,-5956,4048,651,3854,800,-1,-1,1
-2172,14756,-6352,4048,3730,-7049,-2859,-1,-1,1
-3332,15236,-7240,4048,952,-1845,-896,-1,-1,1
-4296,13736,-6168,4048,76,-2381,-1202,-1,-1,1
-2260,15404,-6132,4048,-886,-1989,-1595,-1,-1,1
-4780,14220,-6292,4048,68,-2885,-1260,-1,-1,1
-2636,14688,-5920,4048,-389,-373,-338,-1,-1,1
-4436,14468,-6460,4048,332,-199,-210,-1,-1,1
-2908,14472,-6904,4048,676,1896,1609,-1,-1,1
-4244,14000,-6716,4048,797,-1191,-454,-1,-1,1
-4820,13696,-6396,4048,118,120,-1037,-1,-1,1
-4240,13404,-6388,4048,539,2985,729,-1,-1,1
-3372,13784,-6844,4048,-614,3132,509,-1,-1,1
1356,11568,-11360,4048,64,242,-67,-1,-1,1
1432,11648,-11256,4048,21,284,20,-1,-1,1
-7252,652,-14264,4064,93,391,-26,-1,-1,0
-7256,616,-14272,4064,32,415,-49,-1,-1,0
2380,12532,-9932,4064,-74,204,-50,-1,-1,0
-2212,14664,-6684,4064,-601,1290,-355,-1,-1,1
-1756,14144,-7008,4064,-228,1063,243,-1,-1,1
-1588,14448,-6724,4064,282,1558,80,-1,-1,1
-2004,14740,-6760,4064,835,-2230,-1937,-1,-1,1
-2180,14000,-6948,4064,625,-2810,-720,-1,-1,1
-1540,13864,-6728,4064,-973,5279,979,-1,-1,1
-2020,14540,-7140,4064,-38,1552,684,-1,-1,1
-1704,14224,-7428,4064,340,418,1430,-1,-1,1
-1680,14652,-6392,4064,-288,-1186,-1225,-1,-1,1
-2808,14372,-6824,4064,845,-340,-554,-1,-1,1
-2620,14576,-6448,4064,312,-892,487,-1,-1,1
-3040,14212,-6652,4064,-1566,1858,994,-1,-1,1
-2108,14944,-6532,4064,-293,-1282,119,-1,-1,1
-1760,14568,-6416,4064,2204,-3753,-694,-1,-1,1
-3252,14560,-6204,4064,1474,2593,281,-1,-1,1
-2112,14916,-6324,4064,-267,3198,1545,-1,-1,1
-2968,14700,-6696,4064,136,-2944,-855,-1,-1,1
-3148,14564,-6332,4064,851,1022,-100,-1,-1,1
-2464,14708,-6368,4064,998,4143,1414,-1,-1,1
-2760,15196,-7044,4064,185,424,381,-1,-1,1
-2876,15880,-8232,4064,-1634,1474,376,-1,-1,1
-3048,14636,-5488,4064,871,-2749,-946,-1,-1,1
-2440,14392,-6160,4064,-492,4316,1583,-1,-1,1
-2616,13820,-6224,4064,-1068,7381,2801,-1,-1,1
-5164,14444,-6748,4064,1177,2466,-75,-1,-1,1
-2240,15096,-6088,4064,435,-2285,-1273,-1,-1,1
-2156,14872,-6184,4064,-258,-89,-696,-1,-1,1
-3960,14572,-6280,4064,1015,-1241,17,-1,-1,1
-3104,14320,-6392,4064,-1013,4766,1562,-1,-1,1
-4260,14268,-6284,4064,206,2734,911,-1,-1,1
-3244,13948,-6124,4064,484,2559,2081,-1,-1,1
-2036,14860,-7220,4064,2763,1326,1670,-1,-1,1
-4436,14528,-7324,4064,997,-2868,-452,-1,-1,1
-4660,14200,-6464,4064,-1410,1864,874,-1,-1,1
-4364,14036,-6896,4064,-391,-1705,-781,-1,-1,1
-3516,14684,-6216,4064,288,-1917,-509,-1,-1,1
-3840,14736,-7060,4064,1768,-2232,-1072,-1,-1,1
-4200,13804,-6428,4064,-1713,2879,267,-1,-1,1
-5844,13968,-7612,4064,2019,-1654,-1266,-1,-1,1
-2444,15492,-8152,4064,-1219,2822,1205,-1,-1,1
-4120,14264,-6244,4064,913,-2169,-1234,-1,-1,1
-3708,14264,-6648,4064,-1146,-569,-635,-1,-1,1
-4392,14272,-6552,4064,727,-1793,-713,-1,-1,1
-4528,13116,-5624,4064,-412,-92,-731,-1,-1,1
-5256,14148,-6536,4064,1880,-7070,-2923,-1,-1,1
-4924,14364,-7324,4064,664,-1754,-1296,-1,-1,1
-4076,14004,-6516,4064,614,2530,590,-1,-1,1
-4156,13672,-6896,4064,1267,872,228,-1,-1,1
-5524,13808,-6592,4064,-193,-343,70,-1,-1,1
-5848,14272,-6456,4064,51,944,655,-1,-1,1
1344,11612,-11216,4064,57,39,-61,-1,-1,1
1384,11612,-11252,4064,31,796,-8,-1,-1,1
1260,11636,-11372,4064,74,225,-42,-1,-1,1
-7108,632,-14232,4080,-27,231,7,-1,-1,0
-1440,14512,-6780,4080,-545,3525,1229,-1,-1,1
-2384,14532,-7196,4080,-2625,6254,1960,-1,-1,1
-2164,14332,-6552,4080,-208,1092,413,-1,-1,1
-2204,14644,-6888,4080,138,115,408,-1,-1,1
-2336,14628,-6720,4080,57,-807,-82,-1,-1,1
-1468,15224,-5560,4080,757,-2481,-761,-1,-1,1
-1276,14812,-6576,4080,-1111,1559,862,-1,-1,1
-1860,14624,-6412,4080,879,-574,268,-1,-1,1
-2904,14792,-6012,4080,1359,-3090,-1284,-1,-1,1
-3484,14384,-6432,4080,-1227,-1883,-615,-1,-1,1
-3408,14896,-6420,4080,-3,1794,435,-1,-1,1
-3172,14420,-6172,4080,438,2775,1250,-1,-1,1
-3140,14004,-5568,4080,-505,5336,1710,-1,-1,1
-1640,14204,-6264,4080,855,2634,1705,-1,-1,1
-2132,14148,-6752,4080,18,403,801,-1,-1,1
-3456,14436,-6916,4080,-137,-933,-673,-1,-1,1
-2416,14428,-6304,4080,-134,-1357,-855,-1,-1,1
-2468,14476,-5824,4080,302,-3389,-1537,-1,-1,1
-3808,14288,-5672,4080,26,834,-728,-1,-1,1
-4672,13988,-6360,4080,580,1163,153,-1,-1,1
-4548,14096,-6296,4080,1219,-1393,-707,-1,-1,1
-5996,13940,-6736,4080,-582,3578,988,-1,-1,1
-2916,14388,-6408,4080,434,3259,1361,-1,-1,1
-4404,13992,-6512,4080,16,-751,-520,-1,-1,1
-4804,14012,-6464,4080,2259,-6672,-2986,-1,-1,1
-3848,13260,-5220,4080,-453,139,-322,-1,-1,1
-5912,12928,-6120,4080,-1118,-581,-940,-1,-1,1
-1908,13376,-5800,4080,947,1271,1815,-1,-1,1
-2012,15012,-7096,4080,974,-1303,-741,-1,-1,1
-4900,13592,-5644,4080,-243,126,-202,-1,-1,1
-4132,13908,-6320,4080,1085,1693,1373,-1,-1,1
-5176,13936,-7112,4080,1598,-543,-167,-1,-1,1
-2944,14068,-6132,4080,1244,-2860,-1177,-1,-1,1
-1584,14572,-6852,4080,90,-1394,-2313,-1,-1,1
-4080,13900,-6324,4080,443,2622,1017,-1,-1,1
-2560,14708,-6228,4080,-167,-251,-1052,-1,-1,1
-2688,13996,-5924,4080,2149,-2981,-975,-1,-1,1
-3904,14028,-6824,4080,109,-1125,-835,-1,-1,1
-5088,14080,-6952,4080,62,3073,697,-1,-1,1
-4008,14216,-7072,4080,112,2120,1262,-1,-1,1
-5648,13944,-6628,4080,514,983,183,-1,-1,1
-4896,13612,-5976,4080,-1057,-3072,-1438,-1,-1,1
-4360,13812,-6216,4080,154,-4805,-1805,-1,-1,1
-5024,13860,-6380,4080,158,-2892,-2075,-1,-1,1
-4852,14300,-7596,4080,320,3390,1698,-1,-1,1
-7124,676,-14276,4112,110,415,-46,-1,-1,0
-7084,660,-14244,4112,52,381,-39,-1,-1,0
-1816,14432,-6924,4112,-134,1392,397,-1,-1,1
-1712,14500,-6920,4112,-1606,-731,746,-1,-1,1
-1340,14812,-6108,4112,-1025,1430,33,-1,-1,1
-2104,14928,-6988,4112,20,1405,143,-1,-1,1
400,14844,-6312,4112,-199,4100,2084,-1,-1,1
-2180,14552,-6316,4112,-1716,1763,419,-1,-1,1
-2720,14512,-6680,4112,-706,4757,1823,-1,-1,1
-2808,14416,-5860,4112,1392,224,40,-1,-1,1
-3652,14848,-6756,4112,108,-3044,-992,-1,-1,1
-2920,14700,-6776,4112,582,-1761,344,-1,-1,1
-4564,14148,-6992,4112,491,-1138,-944,-1,-1,1
-2148,14324,-5688,4112,469,-3144,-1551,-1,-1,1
-3632,14292,-6528,4112,-410,-593,-520,-1,-1,1
-3060,14848,-5740,4112,-989,204,-6,-1,-1,1
-3460,14660,-6708,4112,-44,2149,758,-1,-1,1
-3524,14248,-6248,4112,-544,488,-362,-1,-1,1
-3352,14112,-5864,4112,-985,222,-16,-1,-1,1
-3796,14932,-6888,4112,773,1754,599,-1,-1,1
-4224,14640,-6500,4112,831,-4361,-619,-1,-1,1
-5392,14160,-6844,4112,147,-1183,-455,-1,-1,1
-5044,14256,-6716,4112,27,-1285,-1209,-1,-1,1
-2856,14488,-7608,4112,-928,4589,2405,-1,-1,1
-4084,15080,-7004,4112,637,2708,1918,-1,-1,1
-5572,13768,-6876,4112,1096,-2709,-1423,-1,-1,1
-3120,14532,-6116,4112,800,-3149,-695,-1,-1,1
-3668,14432,-7032,4112,630,-226,-396,-1,-1,1
-2792,14400,-7304,4112,1977,3578,2305,-1,-1,1
-5852,13540,-6920,4112,1032,-1047,-1290,-1,-1,1
-6608,12720,-5216,4112,-3747,9188,2776,-1,-1,1
-3864,14180,-6352,4112,1513,-2543,-1165,-1,-1,1
-4124,13316,-5388,4112,-836,-694,-659,-1,-1,1
-4116,14208,-7168,4112,102,928,160,-1,-1,1
-3852,13508,-6560,4112,2062,-3876,-628,-1,-1,1
-4896,13912,-7272,4112,1269,167,-46,-1,-1,1
-4876,13228,-6872,4112,682,1656,116,-1,-1,1
-5916,14588,-7264,4112,343,-1758,47,-1,-1,1
-3432,14448,-6016,4112,-699,-636,-751,-1,-1,1
-4476,13928,-6344,4112,450,-3669,-1168,-1,-1,1
-4856,14184,-6820,4112,593,3643,2174,-1,-1,1
-4028,14308,-6140,4112,-796,455,316,-1,-1,1
-4448,14280,-6688,4112,-912,859,-732,-1,-1,1
1404,11556,-11284,4112,88,307,-44,-1,-1,1
1428,11616,-11204,4112,63,371,-45,-1,-1,1
1148,11528,-11236,4112,67,461,95,-1,-1,1
1324,11476,-11440,4112,79,96,31,-1,-1,1
1352,11724,-11352,4112,87,-128,-26,-1,-1,1
1360,11620,-11268,4112,32,549,-2,-1,-1,1
-7212,656,-14296,4128,-13,268,-35,-1,-1,0
-2792,14292,-6180,4128,1323,-2912,-1842,-1,-1,1
-1880,14660,-6764,4128,1488,-920,-120,-1,-1,1
-3236,14952,-6852,4128,-369,6221,1926,-1,-1,1
-2772,14856,-5644,4128,582,-4911,-1014,-1,-1,1
-3740,14016,-5916,4128,511,340,645,-1,-1,1
-4372,13680,-5604,4128,85,-5487,-1889,-1,-1,1
-5012,13948,-6168,4128,1,-2555,-904,-1,-1,1
-6012,13328,-6264,4128,1503,-5003,-2131,-1,-1,1
-5348,14376,-6288,4128,-174,313,24,-1,-1,1
-4400,14384,-7912,4128,-11,570,670,-1,-1,1
-2404,13812,-6672,4128,2200,3833,2804,-1,-1,1
-3924,14152,-6216,4128,1260,3062,3096,-1,-1,1
-3464,14280,-6440,4128,-1467,69,-488,-1,-1,1
-5360,13528,-6352,4128,152,5707,2450,-1,-1,1
-4680,13948,-6280,4128,-368,-988,-275,-1,-1,1
-2988,13820,-6920,4128,-603,2146,-210,-1,-1,1
-3788,14576,-5544,4128,-646,-61,352,-1,-1,1
-4104,14032,-5784,4128,-702,1605,1590,-1,-1,1
-5628,14440,-7208,4128,373,-958,-366,-1,-1,1
-5828,14520,-7936,4128,-3146,12818,5471,-1,-1,1
-4080,14820,-7864,4128,2156,2203,1362,-1,-1,1
-4936,14244,-6704,4128,-328,-1309,-1696,-1,-1,1
-4768,13664,-6104,4128,-709,-501,-383,-1,-1,1
-5200,13872,-6396,4128,-470,-4764,-1491,-1,-1,1
-5360,14072,-5664,4128,-21,345,40,-1,-1,1
-5312,14004,-5852,4128,-55,497,-54,-1,-1,1
1304,11620,-11216,4128,182,318,48,-1,-1,1
1340,11576,-11212,4128,72,484,111,-1,-1,1
1316,11688,-11208,4128,153,403,60,-1,-1,1
1372,11652,-11224,4128,25,593,15,-1,-1,1
1272,11664,-11192,4128,30,250,-9,-1,-1,1
-6388,444,-14636,4144,36,385,-17,-1,-1,0
-7096,708,-14196,4144,48,343,-17,-1,-1,0
-7100,716,-14340,4144,23,351,-18,-1,-1,0
-7152,764,-14272,4144,5,365,-8,-1,-1,0
-7028,676,-14288,4144,37,396,2,-1,-1,0
-7052,652,-14352,4144,28,397,-46,-1,-1,0
-7116,640,-14240,4144,45,352,-41,-1,-1,0
-6996,700,-14192,4144,33,369,-18,-1,-1,0
2372,12520,-9992,4144,-15,443,21,-1,-1,0
-2676,14244,-6136,4144,1867,-2226,-749,-1,-1,1
-3560,14384,-6292,4144,-633,2970,595,-1,-1,1
-3404,14424,-6700,4144,1033,-1047,-247,-1,-1,1
-4840,14152,-6808,4144,-190,-2256,-682,-1,-1,1
-5808,13800,-6136,4144,654,748,-408,-1,-1,1
-5884,13732,-6632,4144,2082,-3389,-2116,-1,-1,1
-2960,14268,-6248,4144,-228,3989,1076,-1,-1,1
-5108,14876,-7792,4144,23,1347,321,-1,-1,1
-5488,14072,-6812,4144,1956,-5197,-2215,-1,-1,1
-3524,14068,-5956,4144,-33,-269,211,-1,-1,1
-4100,14808,-7796,4144,2137,-1219,-812,-1,-1,1
-4224,14816,-7676,4144,2349,539,692,-1,-1,1
-4308,13928,-6588,4144,-281,-708,-822,-1,-1,1
-5040,13072,-6636,4144,1493,-1814,-394,-1,-1,1
-5312,12972,-6400,4144,783,687,-71,-1,-1,1
-6184,14784,-7124,4144,-592,1869,292,-1,-1,1
-2848,14304,-6484,4144,-995,1843,1008,-1,-1,1
-5388,13600,-6404,4144,-39,511,-427,-1,-1,1
-4396,14164,-5812,4144,-1383,-483,-924,-1,-1,1
-5916,13372,-6660,4144,398,-1905,-1665,-1,-1,1
-6000,13660,-7004,4144,1148,-773,-1141,-1,-1,1
-4516,13520,-6676,4144,372,5264,2580,-1,-1,1
-5408,13408,-6472,4144,490,-1921,-657,-1,-1,1
-3780,14140,-6824,4144,-1245,-909,-892,-1,-1,1
-5660,13744,-6168,4144,509,997,-278,-1,-1,1
-4644,13764,-6352,4144,373,4454,2860,-1,-1,1
-5628,13552,-6140,4144,216,-1456,-321,-1,-1,1
-5200,13924,-6360,4144,-312,-2081,-1672,-1,-1,1
-4620,14256,-6000,4144,169,-4843,-2096,-1,-1,1
-4612,13512,-5896,4144,559,5028,2090,-1,-1,1
-6564,13572,-7076,4144,83,1987,-327,-1,-1,1
-4504,13704,-6424,4144,316,4400,2809,-1,-1,1
-5348,14148,-6484,4144,-279,-141,-343,-1,-1,1
-3660,14148,-7012,4144,-740,425,-548,-1,-1,1
-4184,14020,-6552,4144,-297,-1927,-1639,-1,-1,1
-6312,13660,-6412,4144,5,2886,109,-1,-1,1
-5560,13880,-6256,4144,474,-3709,-1247,-1,-1,1
-3760,14184,-6672,4144,-1073,549,-413,-1,-1,1
-3516,14216,-6576,4144,-1030,1751,-276,-1,-1,1
-6460,13596,-6424,4144,301,1635,-295,-1,-1,1
-4500,13736,-6056,4144,1006,3618,2672,-1,-1,1
-5164,14568,-7088,4144,-285,-1035,-239,-1,-1,1
-5716,14100,-6240,4144,16,1018,153,-1,-1,1
-3388,14272,-6756,4144,181,576,503,-1,-1,1
-5168,14040,-7360,4144,-770,790,376,-1,-1,1
-5256,13620,-7064,4144,121,-325,-267,-1,-1,1
-4268,13956,-6388,4144,-1179,1042,-342,-1,-1,1
-4856,13636,-6552,4144,-162,-1203,-301,-1,-1,1
-4600,14164,-6416,4144,-281,25,-305,-1,-1,1
-4036,14144,-6780,4144,-1545,5177,1909,-1,-1,1
-4008,14872,-6992,4144,-1894,970,-68,-1,-1,1
-5336,15512,-9008,4144,-1517,9125,3578,-1,-1,1
-6376,12572,-4384,4144,-1881,8071,2838,-1,-1,1
-3776,16196,-9620,4144,-953,6890,1988,-1,-1,1
-4724,12808,-5584,4144,2154,-9214,-3649,-1,-1,1
-4276,14472,-6748,4144,921,-349,-279,-1,-1,1
-6200,13964,-6744,4144,17,62,-709,-1,-1,1
-4484,13012,-6288,4144,789,1393,477,-1,-1,1
-4252,13840,-5940,4144,1448,-6250,-2585,-1,-1,1
-3856,13928,-6388,4144,-1079,-23,-1291,-1,-1,1
-4008,13824,-6040,4144,-399,-2652,-2631,-1,-1,1
-3824,14020,-5880,4144,-475,-3118,-2460,-1,-1,1
-5096,14028,-6692,4144,250,3223,486,-1,-1,1
-4460,14912,-6964,4144,1523,648,1086,-1,-1,1
-6052,13552,-6660,4144,1193,-2378,-259,-1,-1,1
-4212,13644,-5688,4144,-870,-4101,-1285,-1,-1,1
-5452,13820,-5624,4144,-200,82,194,-1,-1,1
-5840,13864,-5180,4144,294,-475,-1017,-1,-1,1
-6068,14036,-5760,4144,-252,1680,656,-1,-1,1
-4112,14480,-5420,4144,-570,-1203,-1119,-1,-1,1
-5744,13944,-5448,4144,-101,-1102,-1084,-1,-1,1
-5600,14236,-5024,4144,-36,810,292,-1,-1,1
1236,11640,-11256,4144,56,-40,-76,-1,-1,1
1376,11700,-11324,4144,42,523,35,-1,-1,1
1324,11576,-11228,4144,80,242,-16,-1,-1,1
1352,11628,-11320,4144,43,337,-43,-1,-1,1
1364,11688,-11296,4144,44,291,78,-1,-1,1
2116,11864,-11236,4144,-80,651,390,-1,-1,1
1440,11732,-11168,4144,-164,985,-367,-1,-1,1
1496,11632,-11236,4144,-37,1001,136,-1,-1,1
-6320,580,-14476,4176,10,330,-40,-1,-1,0
-7104,732,-14304,4176,57,315,-31,-1,-1,0
-7072,636,-14336,4176,20,328,-29,-1,-1,0
-7108,580,-14196,4176,43,324,-99,-1,-1,0
-2112,14864,-6452,4176,-270,1752,838,-1,-1,1
-2848,14208,-5572,4176,-745,4426,935,-1,-1,1
-2252,13924,-5976,4176,-360,3949,1971,-1,-1,1
-5252,14352,-6560,4176,-18,-4323,-1423,-1,-1,1
-4356,14100,-6424,4176,484,-2240,-1732,-1,-1,1
-3600,13796,-6240,4176,-747,-1370,-1007,-1,-1,1
-4556,14184,-6344,4176,-445,3419,1085,-1,-1,1
-3896,14244,-6368,4176,-162,-880,-496,-1,-1,1
-5144,14124,-6720,4176,-94,-646,-895,-1,-1,1
-3324,14332,-6132,4176,112,375,-981,-1,-1,1
-4776,14256,-5820,4176,276,-1382,-860,-1,-1,1
-3544,14196,-6220,4176,-771,-314,-974,-1,-1,1
-4872,14072,-7184,4176,-647,1339,923,-1,-1,1
-2700,13828,-6472,4176,953,-1490,-465,-1,-1,1
-824,15516,-8776,4176,26,1010,-236,-1,-1,1
-6068,12460,-4440,4176,-1872,5364,2051,-1,-1,1
-5368,14280,-6484,4176,456,1744,404,-1,-1,1
-3712,14352,-6152,4176,122,-179,-12,-1,-1,1
-5100,13540,-6040,4176,781,3189,862,-1,-1,1
-5080,13700,-5876,4176,-961,-3351,-463,-1,-1,1
-3232,14736,-6460,4176,1493,-4417,-3173,-1,-1,1
-4312,13828,-6264,4176,-43,6515,3035,-1,-1,1
-5268,13720,-6432,4176,-914,6007,2049,-1,-1,1
-5036,13836,-6268,4176,-9,-5297,-1639,-1,-1,1
-4608,14428,-6256,4176,-104,-1332,-102,-1,-1,1
-4344,13816,-5932,4176,-254,-1233,-1090,-1,-1,1
-4904,13836,-5900,4176,465,-1054,-75,-1,-1,1
-5628,13756,-5540,4176,-66,374,293,-1,-1,1
-4656,14232,-6060,4176,296,1845,1485,-1,-1,1
-4880,14092,-5508,4176,150,2064,901,-1,-1,1
-4664,13920,-5492,4176,-38,2152,1017,-1,-1,1
-4996,14460,-6052,4176,76,-71,574,-1,-1,1
-5968,13892,-5556,4176,216,312,-58,-1,-1,1
1456,11684,-11068,4176,-87,518,66,-1,-1,1
1252,11656,-11316,4176,30,347,1,-1,-1,1
1388,11608,-11184,4176,51,294,-17,-1,-1,1
1312,11636,-11260,4176,47,12,2,-1,-1,1
1204,11596,-11180,4176,68,306,-33,-1,-1,1
1892,11780,-11316,4176,168,911,-374,-1,-1,1
1176,11788,-11264,4176,91,653,243,-1,-1,1
1312,11268,-11424,4176,362,-760,-218,-1,-1,1
-7068,676,-14348,4192,164,561,-50,-1,-1,0
-7100,748,-14336,4192,48,373,-32,-1,-1,0
-7100,696,-14172,4192,12,324,-39,-1,-1,0
-7112,672,-14360,4192,69,323,0,-1,-1,0
-7144,704,-14256,4192,77,357,-33,-1,-1,0
-7152,636,-14272,4192,22,377,-53,-1,-1,0
-4940,14184,-7164,4192,420,-2873,-1446,-1,-1,1
-2992,14428,-7392,4192,3200,1702,1864,-1,-1,1
-5676,13324,-5960,4192,-224,-5047,-2601,-1,-1,1
-6328,13800,-6788,4192,27,-390,-1254,-1,-1,1
-4416,14024,-6356,4192,-226,-1953,-1101,-1,-1,1
-3180,14012,-6432,4192,-881,-429,-858,-1,-1,1
-3472,14296,-6492,4192,-649,-1627,-914,-1,-1,1
-4632,13976,-6588,4192,702,-2297,-1018,-1,-1,1
-6100,13760,-6988,4192,-567,-1024,-1447,-1,-1,1
-5140,14368,-7232,4192,939,1255,1333,-1,-1,1
-4012,15072,-7088,4192,876,1815,847,-1,-1,1
-2916,14372,-6860,4192,-821,2853,1087,-1,-1,1
-3824,14380,-6372,4192,886,-2808,-2403,-1,-1,1
-5496,13244,-5448,4192,-561,-2348,-857,-1,-1,1
-3156,14612,-7448,4192,1447,-2004,-722,-1,-1,1
-4752,14280,-7684,4192,-2778,14957,5726,-1,-1,1
-6852,13152,-5808,4192,-2922,10441,4102,-1,-1,1
-4060,15944,-9412,4192,-104,2017,300,-1,-1,1
-4780,15544,-8628,4192,-1613,9210,3252,-1,-1,1
-5784,13128,-6268,4192,-118,1403,435,-1,-1,1
-5964,14028,-7072,4192,213,118,620,-1,-1,1
-6172,13996,-6816,4192,1324,-495,-702,-1,-1,1
-5976,12848,-5916,4192,847,1345,-161,-1,-1,1
-5592,13972,-6532,4192,227,-2783,-1898,-1,-1,1
-3600,14436,-6540,4192,350,260,-635,-1,-1,1
-3044,14260,-6416,4192,575,-3076,-2137,-1,-1,1
-4972,13900,-7052,4192,-210,1881,1225,-1,-1,1
-5852,13296,-6332,4192,-6,5615,1656,-1,-1,1
-5380,13868,-7084,4192,-242,6231,2713,-1,-1,1
-5216,12996,-6712,4192,-521,1844,2045,-1,-1,1
-4500,14652,-6768,4192,-466,-125,1373,-1,-1,1
-6372,13292,-5960,4192,295,-6916,-2792,-1,-1,1
-4340,14200,-6312,4192,39,-2494,-9,-1,-1,1
-4540,14788,-6912,4192,922,-2122,-1152,-1,-1,1
-5680,14308,-6492,4192,-583,4936,1821,-1,-1,1
-4600,14284,-6532,4192,77,-460,819,-1,-1,1
-5864,13136,-5780,4192,712,-2520,-463,-1,-1,1
-6552,14604,-7224,4192,864,-597,-1438,-1,-1,1
-5104,13852,-5956,4192,975,1661,1497,-1,-1,1
-4332,14396,-5984,4192,1315,-1812,-510,-1,-1,1
-3936,13796,-6020,4192,-810,7814,3926,-1,-1,1
-3980,14156,-6000,4192,-608,-1311,-1384,-1,-1,1
-5076,14532,-6576,4192,155,4705,2476,-1,-1,1
-4016,14120,-5936,4192,-567,-1154,-1233,-1,-1,1
-5264,13708,-6128,4192,348,3919,1994,-1,-1,1
-4072,14624,-6008,4192,-491,-2750,-1715,-1,-1,1
-5128,13488,-5484,4192,-375,6682,3087,-1,-1,1
-4020,14068,-5960,4192,-502,-3258,-2478,-1,-1,1
-3628,14740,-6832,4192,852,-1019,74,-1,-1,1
-5364,13592,-6080,4192,-605,-3430,-2071,-1,-1,1
-5840,14008,-6336,4192,1163,-5405,-2243,-1,-1,1
-4556,13568,-5336,4192,-889,-2054,-1489,-1,-1,1
-5516,13868,-5460,4192,-98,-2393,-1299,-1,-1,1
-6212,13288,-5104,4192,318,-2376,-997,-1,-1,1
-6032,13808,-5628,4192,539,-4663,-1468,-1,-1,1
-5176,14180,-6084,4192,-678,722,-1331,-1,-1,1
-4756,14212,-5876,4192,294,2213,1276,-1,-1,1
-5372,13764,-5536,4192,-166,-597,-299,-1,-1,1
-4672,14252,-5240,4192,-312,-3089,-2255,-1,-1,1
-5564,13912,-5256,4192,42,-2204,-1194,-1,-1,1
-5116,14388,-5668,4192,-75,895,-226,-1,-1,1
-5928,13840,-5432,4192,-47,905,296,-1,-1,1
-4488,13736,-5120,4192,224,2762,659,-1,-1,1
-4136,14400,-5652,4192,-197,312,-301,-1,-1,1
-5296,13996,-5300,4192,-486,-1702,-699,-1,-1,1
-5352,14188,-5248,4192,-211,467,-411,-1,-1,1
-5016,14244,-5416,4192,-501,523,183,-1,-1,1
-5800,14052,-5468,4192,249,163,-295,-1,-1,1
-5240,14140,-5524,4192,0,739,349,-1,-1,1
-5432,14364,-5352,4192,296,748,800,-1,-1,1
-5656,14564,-5580,4192,492,860,474,-1,-1,1
-4596,14484,-5760,4192,-199,1498,707,-1,-1,1
-3400,12900,-9528,4192,801,2657,-21,-1,-1,1
1384,11508,-11288,4192,7,378,91,-1,-1,1
1396,11572,-11368,4192,-52,551,55,-1,-1,1
1276,11636,-11288,4192,80,41,-39,-1,-1,1
1300,11672,-11232,4192,105,198,-40,-1,-1,1
1432,11540,-11448,4192,14,-4,-302,-1,-1,1
1880,11572,-11356,4192,41,-562,-104,-1,-1,1
-7088,644,-14248,4224,83,371,-55,-1,-1,0
-7020,656,-14364,4224,78,385,-40,-1,-1,0
-7168,640,-14296,4224,61,320,-24,-1,-1,0
-7100,820,-14276,4224,6,377,-26,-1,-1,0
-7080,684,-14272,4224,86,358,-41,-1,-1,0
-7120,684,-14300,4224,79,339,-14,-1,-1,0
-7072,700,-14300,4224,75,346,-49,-1,-1,0
-7124,708,-14416,4224,38,351,-24,-1,-1,0
-7132,704,-14216,4224,50,380,-4,-1,-1,0
2372,12476,-9932,4224,59,361,-17,-1,-1,0
2300,12528,-10016,4224,-138,216,-74,-1,-1,0
-3748,14504,-6336,4224,-643,590,-384,-1,-1,1
-3776,14488,-6068,4224,-759,-1859,-222,-1,-1,1
-3896,14444,-6436,4224,1945,-1080,-638,-1,-1,1
-4212,13424,-5888,4224,-38,296,83,-1,-1,1
-5064,14076,-7424,4224,348,599,2,-1,-1,1
-5900,13956,-7152,4224,1708,-4759,-1601,-1,-1,1
-4724,13720,-5940,4224,-1101,3551,1129,-1,-1,1
-4068,14068,-6748,4224,1861,-2458,-852,-1,-1,1
-4692,13556,-5824,4224,-449,442,51,-1,-1,1
-6828,13376,-5568,4224,-2638,8847,3568,-1,-1,1
-6132,12352,-4960,4224,2251,-11871,-4213,-1,-1,1
-7120,12504,-5016,4224,-768,4315,1545,-1,-1,1
-4816,12772,-5480,4224,2140,-9239,-3763,-1,-1,1
-5964,14720,-7932,4224,-2109,14373,5382,-1,-1,1
-5028,15524,-8888,4224,303,1908,457,-1,-1,1
-4916,14580,-7800,4224,-164,4435,1972,-1,-1,1
-7384,12984,-6976,4224,824,-1841,-1910,-1,-1,1
-4280,14128,-6084,4224,838,-1399,-705,-1,-1,1
-6112,13924,-6924,4224,167,-354,-686,-1,-1,1
-3204,14148,-6296,4224,250,-2753,-2458,-1,-1,1
-5840,13892,-6840,4224,884,-628,-590,-1,-1,1
-4584,14116,-6416,4224,-509,-97,-316,-1,-1,1
-5292,14280,-6512,4224,383,-2958,-1689,-1,-1,1
-6944,13712,-7120,4224,151,-444,-980,-1,-1,1
-4260,14296,-7048,4224,813,-1505,-1171,-1,-1,1
-3516,13780,-5756,4224,450,4324,1572,-1,-1,1
-4540,13756,-6240,4224,-375,-1880,-1513,-1,-1,1
-3424,14528,-5776,4224,-636,-1803,-1797,-1,-1,1
-5968,14384,-6944,4224,346,2257,1682,-1,-1,1
-4872,13780,-6112,4224,166,-2478,-1655,-1,-1,1
-5604,14200,-6364,4224,-258,548,955,-1,-1,1
-4104,14260,-5760,4224,-118,10207,3676,-1,-1,1
-4456,14144,-5508,4224,1053,3735,999,-1,-1,1
-4804,14316,-6128,4224,142,-2550,-1942,-1,-1,1
-4892,13344,-5504,4224,344,-6193,-2356,-1,-1,1
-6412,14192,-5832,4224,177,-3057,-1421,-1,-1,1
-5288,13280,-5544,4224,1165,-3190,-1529,-1,-1,1
-4964,13824,-4972,4224,-1574,37,191,-1,-1,1
-5064,13744,-5636,4224,-406,-1476,-854,-1,-1,1
-4636,14292,-5636,4224,-513,-546,-551,-1,-1,1
-4792,14140,-5752,4224,-58,-1185,-757,-1,-1,1
-4792,13932,-5224,4224,392,-4026,-1658,-1,-1,1
-4780,14416,-5752,4224,427,1999,1322,-1,-1,1
-5184,14132,-5536,4224,29,-1711,-1066,-1,-1,1
-5308,14444,-5656,4224,115,1220,-420,-1,-1,1
-4632,14248,-5440,4224,32,2625,1317,-1,-1,1
-5156,14748,-6476,4224,509,-1522,-156,-1,-1,1
-4788,14448,-5704,4224,-596,-384,-396,-1,-1,1
-5108,14140,-5716,4224,-70,152,-34,-1,-1,1
-5136,13940,-5488,4224,-188,-136,-96,-1,-1,1
-4476,14324,-5460,4224,568,2224,1292,-1,-1,1
-4828,14116,-5408,4224,99,55,270,-1,-1,1
-3872,14160,-5368,4224,325,2148,1157,-1,-1,1
-5324,14432,-6236,4224,289,9,42,-1,-1,1
-4220,14812,-5232,4224,69,-1053,-612,-1,-1,1
-5372,14500,-6068,4224,51,2186,-420,-1,-1,1
-4160,14744,-5440,4224,-251,-1356,-714,-1,-1,1
-5520,14328,-6000,4224,1097,-1940,-642,-1,-1,1
-4716,14880,-5852,4224,-101,-1178,-254,-1,-1,1
-5952,14224,-5156,4224,55,14,-240,-1,-1,1
-5544,13752,-5176,4224,-531,954,-635,-1,-1,1
-5916,14352,-5512,4224,209,654,475,-1,-1,1
-4832,14316,-5580,4224,-272,323,61,-1,-1,1
-5900,14020,-5632,4224,273,-585,-763,-1,-1,1
-5480,14036,-5172,4224,678,-741,-40,-1,-1,1
-6068,13936,-4776,4224,-126,-74,-156,-1,-1,1
-5652,13900,-5316,4224,-301,-565,-954,-1,-1,1
-5168,14292,-5296,4224,299,-1394,-592,-1,-1,1
-5648,14088,-5616,4224,-411,1294,-277,-1,-1,1
-4600,14200,-4956,4224,-90,2924,841,-1,-1,1
-4956,14264,-5424,4224,397,1006,942,-1,-1,1
-5532,14312,-5552,4224,316,149,-464,-1,-1,1
-5032,14228,-5068,4224,-153,1905,10,-1,-1,1
-5588,14736,-5044,4224,153,-1316,-853,-1,-1,1
-4772,14792,-4516,4224,-212,-709,-243,-1,-1,1
-3280,12668,-9468,4224,345,366,-52,-1,-1,1
-5308,14040,-5944,4224,-226,1077,465,-1,-1,1
3636,1040,-17400,4224,-813,145,135,-1,-1,1
1096,11548,-11292,4224,30,218,-92,-1,-1,1
1256,11596,-11328,4224,62,366,16,-1,-1,1
1332,11596,-11328,4224,86,324,18,-1,-1,1
1300,11564,-11292,4224,61,287,15,-1,-1,1
1272,11668,-11212,4224,62,329,-39,-1,-1,1
1292,11728,-11252,4224,87,68,-118,-1,-1,1
1596,11780,-11268,4224,351,-1170,-742,-1,-1,1
1224,11560,-11272,4224,-18,889,156,-1,-1,1
1200,11600,-11268,4224,122,379,-5,-1,-1,1
1192,11556,-11252,4224,-9,536,107,-1,-1,1
1280,11584,-11360,4224,32,-76,-36,-1,-1,1
1356,11612,-11232,4224,132,359,-82,-1,-1,1
1392,11580,-11392,4224,82,415,-55,-1,-1,1
1524,11712,-11136,4224,-23,480,49,-1,-1,1
1140,11636,-11228,4224,26,969,92,-1,-1,1
-6380,516,-14660,4240,37,415,-79,-1,-1,0
-7184,696,-14300,4240,10,385,-31,-1,-1,0
-7096,720,-14268,4240,63,369,-49,-1,-1,0
-7168,612,-14312,4240,38,414,-63,-1,-1,0
-7168,736,-14276,4240,17,344,-23,-1,-1,0
-7136,740,-14312,4240,49,386,-43,-1,-1,0
-7120,604,-14348,4240,7,366,-23,-1,-1,0
-7124,696,-14336,4240,18,368,-16,-1,-1,0
-7092,648,-14264,4240,41,359,-24,-1,-1,0
-7088,636,-14208,4240,58,328,-25,-1,-1,0
-7136,692,-14356,4240,10,342,-26,-1,-1,0
-7108,632,-14292,4240,32,356,-43,-1,-1,0
2460,12456,-9984,4240,84,405,85,-1,-1,0
2408,12548,-10084,4240,18,220,-65,-1,-1,0
2448,12440,-9876,4240,148,386,84,-1,-1,0
2472,12496,-10080,4240,-23,255,-6,-1,-1,0
2376,12564,-10016,4240,-42,224,-72,-1,-1,0
2612,12520,-10044,4240,-42,289,-55,-1,-1,0
-4024,14028,-6596,4240,374,184,-45,-1,-1,1
-5824,13616,-6724,4240,26,-3331,-1534,-1,-1,1
-4068,14220,-6884,4240,-864,-165,-882,-1,-1,1
-5276,13720,-6376,4240,-599,-970,-425,-1,-1,1
-5084,12892,-4728,4240,3771,-20681,-8066,-1,-1,1
-6012,12192,-4776,4240,2312,-13139,-4803,-1,-1,1
-7040,13144,-6148,4240,-2732,10282,5071,-1,-1,1
-4864,12700,-4780,4240,2291,-12038,-4392,-1,-1,1
-5068,14144,-7612,4240,1463,2781,1743,-1,-1,1
-4224,14760,-7084,4240,1317,4480,2195,-1,-1,1
-4604,14488,-7076,4240,151,5909,2900,-1,-1,1
-6760,13044,-7244,4240,901,-2327,-2071,-1,-1,1
-6048,13840,-6628,4240,140,744,-614,-1,-1,1
-3248,13932,-6060,4240,238,-1596,-1537,-1,-1,1
-4584,13632,-7372,4240,-102,1182,2112,-1,-1,1
-4728,13692,-6344,4240,-919,-1782,-1588,-1,-1,1
-2956,14544,-5924,4240,-64,-2194,-1910,-1,-1,1
-3468,14104,-6348,4240,-75,-280,-1282,-1,-1,1
-3456,14128,-5560,4240,168,-4245,-3180,-1,-1,1
-5308,13432,-5216,4240,-1164,8440,2739,-1,-1,1
-5536,13756,-6148,4240,81,-3862,-1648,-1,-1,1
-3144,14892,-6364,4240,1229,-2051,-1038,-1,-1,1
-3412,14380,-5880,4240,849,-2141,-1339,-1,-1,1
-4816,13520,-5480,4240,543,-3604,-1719,-1,-1,1
-4260,13844,-6084,4240,-526,-2001,-1537,-1,-1,1
-4320,14768,-6152,4240,281,-4199,-2512,-1,-1,1
-6620,13996,-6948,4240,520,1129,-376,-1,-1,1
-5644,13420,-6068,4240,738,-4281,-1191,-1,-1,1
-5472,14068,-6440,4240,622,-2667,-499,-1,-1,1
-4212,14236,-6016,4240,-103,-2280,-1899,-1,-1,1
-5940,13768,-5348,4240,239,-3010,-1203,-1,-1,1
-6284,14080,-5876,4240,-62,2982,698,-1,-1,1
-4512,14104,-5492,4240,689,-2313,-847,-1,-1,1
-5572,14160,-6408,4240,331,-82,-341,-1,-1,1
-5520,14380,-6088,4240,-217,2788,1710,-1,-1,1
-5144,14044,-5864,4240,-71,-830,-403,-1,-1,1
-4308,14012,-5340,4240,161,-3793,-1763,-1,-1,1
-5600,13932,-5776,4240,703,-1590,-954,-1,-1,1
-5692,14560,-5932,4240,-44,445,-152,-1,-1,1
-6096,13956,-5668,4240,-45,247,-142,-1,-1,1
-5632,13576,-6020,4240,430,823,96,-1,-1,1
-4508,14348,-6236,4240,-173,907,25,-1,-1,1
-4448,14476,-5500,4240,-309,-285,-225,-1,-1,1
-5068,14352,-5724,4240,272,1780,1190,-1,-1,1
-5376,14196,-5492,4240,-670,-3176,-1236,-1,-1,1
-5628,14316,-5416,4240,336,-1720,-1230,-1,-1,1
-4716,14088,-5596,4240,-41,403,142,-1,-1,1
-4408,14288,-5776,4240,-59,-1284,-728,-1,-1,1
-4328,14448,-5404,4240,-464,-676,-401,-1,-1,1
-5228,14228,-5568,4240,217,-1116,-1055,-1,-1,1
-4524,13968,-5216,4240,222,1861,1200,-1,-1,1
-4008,14656,-5568,4240,-977,1550,346,-1,-1,1
-4932,14132,-5160,4240,324,1144,294,-1,-1,1
-4936,14092,-5460,4240,372,2784,1269,-1,-1,1
-4632,14244,-5868,4240,-189,1253,313,-1,-1,1
-5612,13924,-5852,4240,155,222,-105,-1,-1,1
-5308,13788,-5000,4240,-307,2368,297,-1,-1,1
-5588,14352,-5032,4240,-123,-426,-417,-1,-1,1
-5240,14608,-5520,4240,-691,1531,206,-1,-1,1
-5672,13892,-5132,4240,432,-1216,-604,-1,-1,1
-6372,14028,-5520,4240,533,322,120,-1,-1,1
-5136,13792,-5180,4240,151,544,345,-1,-1,1
-5120,14096,-5328,4240,-714,794,266,-1,-1,1
-5092,14168,-5160,4240,279,-1744,-1101,-1,-1,1
-4788,14348,-5472,4240,139,-1213,-671,-1,-1,1
-4908,14404,-5616,4240,-266,548,54,-1,-1,1
-4852,13912,-5100,4240,119,2803,732,-1,-1,1
-5288,14004,-5152,4240,521,803,856,-1,-1,1
-5400,14480,-5616,4240,-486,1736,837,-1,-1,1
-5244,14168,-5480,4240,-209,699,215,-1,-1,1
-4808,14288,-5468,4240,-539,757,212,-1,-1,1
-5180,14160,-5704,4240,15,-387,-308,-1,-1,1
-4512,13984,-5144,4240,38,1624,963,-1,-1,1
-4784,14048,-5692,4240,-309,-158,-116,-1,-1,1
-4864,14252,-4940,4240,-906,719,-37,-1,-1,1
-5224,14336,-5660,4240,344,-448,-218,-1,-1,1
-5400,14424,-5140,4240,172,-2236,-1362,-1,-1,1
-4420,14100,-5056,4240,426,2445,949,-1,-1,1
-4564,14412,-4280,4240,-84,2758,1125,-1,-1,1
-4556,15008,-4400,4240,-124,252,239,-1,-1,1
-4860,14652,-4744,4240,-9,-427,-415,-1,-1,1
-4448,14856,-4488,4240,-58,187,100,-1,-1,1
-4872,14736,-4744,4240,185,-119,-27,-1,-1,1
-4384,14080,-4372,4240,595,1162,-165,-1,-1,1
-5620,14280,-4728,4240,434,-1857,-975,-1,-1,1
-5784,14812,-4760,4240,50,2633,1820,-1,-1,1
3552,1028,-17304,4240,-800,143,164,-1,-1,1
1424,11592,-11248,4240,33,403,30,-1,-1,1
1280,11652,-11296,4240,10,273,-39,-1,-1,1
1348,11536,-11344,4240,11,560,37,-1,-1,1
1224,11596,-11336,4240,63,-27,-129,-1,-1,1
1384,11392,-11348,4240,238,1071,-483,-1,-1,1
1788,11776,-11180,4240,115,195,24,-1,-1,1
1208,11592,-11284,4240,111,-270,-421,-1,-1,1
788,11504,-11248,4240,268,-969,-85,-1,-1,1
1308,11664,-11280,4240,133,517,138,-1,-1,1
1388,11520,-11492,4240,86,794,71,-1,-1,1
1324,11592,-11256,4240,72,213,-20,-1,-1,1
1448,11620,-11296,4240,75,595,57,-1,-1,1
1624,11820,-11208,4240,81,670,-184,-1,-1,1
-6272,496,-14652,4256,27,349,-69,-1,-1,0
-6388,488,-14628,4256,39,340,-28,-1,-1,0
-6376,560,-14660,4256,-28,246,26,-1,-1,0
636,13216,-9252,4256,343,628,-264,-1,-1,0
-7164,648,-14232,4256,66,433,-2,-1,-1,0
-7120,620,-14272,4256,42,367,-23,-1,-1,0
-7160,668,-14340,4256,35,397,-53,-1,-1,0
-7076,632,-14284,4256,34,382,7,-1,-1,0
-7104,668,-14280,4256,40,346,-28,-1,-1,0
-7172,728,-14312,4256,41,385,-34,-1,-1,0
-7108,628,-14296,4256,50,347,-50,-1,-1,0
-7112,688,-14456,4256,-34,343,-42,-1,-1,0
-7148,652,-14308,4256,61,394,-19,-1,-1,0
-7048,640,-14324,4256,52,441,-47,-1,-1,0
2520,12524,-9968,4256,70,200,-66,-1,-1,0
2376,12488,-9952,4256,82,360,0,-1,-1,0
2556,12496,-10048,4256,210,458,-7,-1,-1,0
2520,12572,-9944,4256,172,364,-25,-1,-1,0
-3764,14596,-6688,4256,309,514,122,-1,-1,1
-4760,13624,-5944,4256,138,-350,-206,-1,-1,1
-3972,15124,-7224,4256,756,1862,-241,-1,-1,1
-5988,13980,-7024,4256,-57,3350,2064,-1,-1,1
-3588,14520,-6156,4256,310,-1924,-694,-1,-1,1
-3404,14428,-6164,4256,-241,5024,2709,-1,-1,1
-4804,13688,-5544,4256,-5,7433,2696,-1,-1,1
-4832,14956,-6628,4256,378,3265,602,-1,-1,1
-4596,13996,-5984,4256,1358,5052,2769,-1,-1,1
-5724,13744,-5536,4256,-720,-3198,-1824,-1,-1,1
-4456,14680,-6008,4256,616,769,317,-1,-1,1
-5408,14440,-5828,4256,80,4757,1675,-1,-1,1
-5268,13976,-5664,4256,176,399,52,-1,-1,1
-5236,14168,-5536,4256,46,1736,1247,-1,-1,1
-4944,13832,-5236,4256,-137,-1736,-465,-1,-1,1
-5004,14020,-5636,4256,-149,501,319,-1,-1,1
-5204,14336,-5568,4256,-94,204,-508,-1,-1,1
-5812,13964,-5236,4256,-2,158,130,-1,-1,1
-4416,14008,-5440,4256,771,2038,456,-1,-1,1
-5772,14168,-6232,4256,198,-653,-426,-1,-1,1
-5588,14444,-6008,4256,674,-1363,-185,-1,-1,1
-5640,14276,-5700,4256,416,-1053,-315,-1,-1,1
-5312,14224,-5508,4256,403,-2008,-605,-1,-1,1
-3876,14292,-5592,4256,-427,2168,513,-1,-1,1
-5592,14004,-5040,4256,1398,-76,-111,-1,-1,1
-5104,14104,-5568,4256,639,-2228,-781,-1,-1,1
-5384,14048,-5440,4256,279,-910,-1088,-1,-1,1
-4956,14036,-5540,4256,-397,-483,-388,-1,-1,1
-5676,13956,-5892,4256,260,-1826,-691,-1,-1,1
-5256,14292,-5236,4256,-415,2583,525,-1,-1,1
-5976,14236,-5632,4256,494,-772,-286,-1,-1,1
-5140,14184,-5332,4256,98,-716,-543,-1,-1,1
-5632,13904,-5348,4256,7,11,-266,-1,-1,1
-4964,14124,-5492,4256,-56,-223,-164,-1,-1,1
-5456,14124,-5944,4256,-1564,4563,1292,-1,-1,1
-5792,14552,-5888,4256,796,-464,-18,-1,-1,1
-6048,13888,-4896,4256,-115,728,-70,-1,-1,1
-5652,14044,-5332,4256,99,-671,-784,-1,-1,1
-6204,14028,-4708,4256,76,363,-411,-1,-1,1
-5784,13920,-4932,4256,-250,-158,-494,-1,-1,1
-5932,13976,-5440,4256,-101,341,-735,-1,-1,1
-5528,13912,-5260,4256,40,-302,-547,-1,-1,1
-5812,13944,-5220,4256,-358,456,-286,-1,-1,1
-6024,14308,-5772,4256,92,760,292,-1,-1,1
-5256,14252,-5104,4256,-674,644,-59,-1,-1,1
-6008,14336,-5592,4256,-28,632,422,-1,-1,1
-5568,14244,-5548,4256,-241,107,-481,-1,-1,1
-5724,14012,-5084,4256,168,641,-215,-1,-1,1
-5112,14120,-5556,4256,-230,969,436,-1,-1,1
-5108,14248,-5660,4256,-254,621,204,-1,-1,1
-4936,14212,-5768,4256,-130,-104,-284,-1,-1,1
-4448,14304,-5324,4256,-247,89,-8,-1,-1,1
-5520,14232,-5220,4256,411,807,65,-1,-1,1
-5668,14460,-5556,4256,527,-26,-406,-1,-1,1
-5292,14080,-5004,4256,-76,2224,923,-1,-1,1
-4356,14700,-5092,4256,242,-533,-797,-1,-1,1
-5644,14644,-5144,4256,519,-1000,-762,-1,-1,1
-5416,14660,-4480,4256,-567,1569,418,-1,-1,1
-5276,14336,-4588,4256,259,653,-23,-1,-1,1
-5416,14792,-4908,4256,294,-549,-135,-1,-1,1
-4644,14912,-4596,4256,-329,-370,-60,-1,-1,1
-5576,14484,-4468,4256,276,-417,-986,-1,-1,1
-5196,14468,-4608,4256,608,-1131,-991,-1,-1,1
-4396,15076,-4396,4256,-204,-468,-74,-1,-1,1
-5448,14408,-4424,4256,266,759,-789,-1,-1,1
-5516,14284,-4776,4256,1830,-2766,-1072,-1,-1,1
6492,12152,-8668,4256,806,-3475,-1325,-1,-1,1
3596,1064,-17392,4256,-846,202,219,-1,-1,1
1212,11616,-11408,4256,10,706,109,-1,-1,1
1332,11528,-11336,4256,74,259,-23,-1,-1,1
1340,11564,-11272,4256,42,461,9,-1,-1,1
1400,11704,-11208,4256,94,626,84,-1,-1,1
1128,11572,-11196,4256,-55,235,48,-1,-1,1
1276,11592,-11264,4256,63,511,48,-1,-1,1
1292,11536,-11360,4256,66,215,-16,-1,-1,1
1300,11552,-11360,4256,69,423,74,-1,-1,1
1344,11436,-11392,4256,21,599,209,-1,-1,1
1228,11660,-11296,4256,58,-458,-46,-1,-1,1
1316,11492,-11224,4256,18,64,17,-1,-1,1
1368,11624,-11324,4256,64,413,37,-1,-1,1
1424,11680,-11284,4256,40,833,-122,-1,-1,1
1396,11600,-11332,4256,46,551,-30,-1,-1,1
1568,11656,-11380,4256,98,-34,-141,-1,-1,1
1332,11532,-11336,4256,81,335,34,-1,-1,1
1336,11620,-11188,4256,81,231,13,-1,-1,1
1480,11596,-11300,4256,-40,986,-93,-1,-1,1
1304,11528,-11332,4256,69,91,26,-1,-1,1
1372,11564,-11316,4256,63,264,-28,-1,-1,1
-6344,552,-14500,4288,10,302,-26,-1,-1,0
-6344,560,-14672,4288,56,390,-61,-1,-1,0
-6156,584,-14752,4288,-6,403,-76,-1,-1,0
-7088,736,-14164,4288,66,435,-14,-1,-1,0
-7180,708,-14248,4288,42,381,7,-1,-1,0
-7128,692,-14312,4288,20,362,-56,-1,-1,0
-7160,760,-14296,4288,28,331,-31,-1,-1,0
-7176,620,-14252,4288,12,343,-8,-1,-1,0
-7120,636,-14208,4288,35,374,-14,-1,-1,0
-7172,668,-14216,4288,33,377,-7,-1,-1,0
-7132,696,-14320,4288,12,374,-44,-1,-1,0
-7104,640,-14304,4288,48,408,-34,-1,-1,0
2460,12544,-10004,4288,94,254,-54,-1,-1,0
2404,12516,-10040,4288,27,252,-22,-1,-1,0
2484,12540,-10108,4288,73,367,30,-1,-1,0
2444,12620,-9980,4288,38,362,-8,-1,-1,0
2212,12632,-9912,4288,154,403,96,-1,-1,0
2364,12516,-9896,4288,150,378,82,-1,-1,0
2312,12580,-9948,4288,-14,278,-31,-1,-1,0
-4832,13928,-6024,4288,331,484,-677,-1,-1,1
-4428,13884,-5764,4288,-696,-3072,-1147,-1,-1,1
-6276,13248,-6028,4288,-383,7308,2226,-1,-1,1
-4984,13444,-5704,4288,-1030,9918,3144,-1,-1,1
-3260,14256,-5480,4288,1148,-5971,-2375,-1,-1,1
-3052,14616,-6864,4288,-185,-203,-949,-1,-1,1
-4576,14652,-6044,4288,1235,-4279,-1870,-1,-1,1
-6164,14504,-6428,4288,-743,2474,1621,-1,-1,1
-3884,14612,-6448,4288,837,2344,2003,-1,-1,1
-5648,13904,-6228,4288,-150,1153,957,-1,-1,1
-4608,14356,-5608,4288,-455,-56,-387,-1,-1,1
-4940,14324,-5852,4288,-325,702,312,-1,-1,1
-4852,14416,-5312,4288,-316,-1851,-217,-1,-1,1
-5708,14556,-6060,4288,185,944,380,-1,-1,1
-5804,14564,-5868,4288,311,231,-89,-1,-1,1
-5260,14176,-5932,4288,289,716,367,-1,-1,1
-5636,13948,-5328,4288,445,-601,-891,-1,-1,1
-4772,13888,-5124,4288,-266,3423,1746,-1,-1,1
-4636,14368,-5660,4288,-570,1855,632,-1,-1,1
-4556,14024,-5612,4288,-76,-1099,-313,-1,-1,1
-4616,14756,-5148,4288,-416,-2450,-1725,-1,-1,1
-5444,14616,-5388,4288,-777,321,265,-1,-1,1
-5684,13860,-5600,4288,17,90,-78,-1,-1,1
-5728,13932,-5332,4288,164,-638,-339,-1,-1,1
-5924,14200,-5680,4288,304,145,172,-1,-1,1
-6004,13840,-5312,4288,329,-452,-527,-1,-1,1
-5436,14156,-5276,4288,-414,1566,666,-1,-1,1
-5340,14296,-5456,4288,120,-327,-113,-1,-1,1
-5016,14360,-5160,4288,-268,-489,-314,-1,-1,1
-5400,14060,-5048,4288,454,1046,175,-1,-1,1
-5660,14232,-5528,4288,381,-82,-277,-1,-1,1
-6076,13788,-5060,4288,-365,1347,182,-1,-1,1
-5004,14284,-5184,4288,-32,-1208,-1025,-1,-1,1
-5000,14224,-5448,4288,-116,304,-71,-1,-1,1
-4472,14664,-5100,4288,-221,-41,139,-1,-1,1
-6384,14236,-5728,4288,-465,716,-877,-1,-1,1
-5212,14608,-5324,4288,-308,488,-419,-1,-1,1
-4364,14268,-5480,4288,-269,110,-172,-1,-1,1
-5400,14528,-5404,4288,-155,2610,1133,-1,-1,1
-4372,14484,-5588,4288,-358,633,-80,-1,-1,1
-5844,14084,-5312,4288,-204,-222,-953,-1,-1,1
-4860,14680,-5180,4288,-301,-641,-765,-1,-1,1
-5804,14372,-4804,4288,97,-615,-250,-1,-1,1
-4808,14584,-4648,4288,-731,1526,577,-1,-1,1
-4968,14656,-4760,4288,-104,-187,-101,-1,-1,1
-5336,14384,-4508,4288,-98,-492,-318,-1,-1,1
-4980,14168,-4208,4288,516,835,328,-1,-1,1
-5184,14496,-4716,4288,335,-173,51,-1,-1,1
-5288,14472,-4248,4288,-593,1900,-187,-1,-1,1
-5432,14692,-4756,4288,-772,3040,1379,-1,-1,1
-4968,14568,-4968,4288,264,-227,-666,-1,-1,1
-4072,14912,-5604,4288,535,1929,1637,-1,-1,1
-5148,14280,-5948,4288,-1211,2014,1669,-1,-1,1
5588,12260,-8692,4288,46,476,-72,-1,-1,1
6020,12360,-8196,4288,-120,-1704,-938,-1,-1,1
3640,1060,-17364,4288,-856,192,191,-1,-1,1
1452,11624,-11336,4288,4,702,92,-1,-1,1
1176,11692,-11108,4288,-50,1748,413,-1,-1,1
1288,11604,-11424,4288,138,147,-313,-1,-1,1
1452,11668,-11252,4288,90,715,-42,-1,-1,1
1328,11576,-11256,4288,84,342,-53,-1,-1,1
1528,11640,-11332,4288,126,-80,-112,-1,-1,1
1436,11576,-11268,4288,46,727,29,-1,-1,1
1288,11304,-11800,4288,430,707,-189,-1,-1,1
1452,11400,-11284,4288,-13,693,76,-1,-1,1
1436,11552,-11320,4288,55,45,-7,-1,-1,1
1456,11676,-11324,4288,-37,739,61,-1,-1,1
1404,11544,-11252,4288,-28,350,38,-1,-1,1
1532,11576,-11248,4288,-61,379,-22,-1,-1,1
1368,11560,-11324,4288,68,224,-72,-1,-1,1
-6380,520,-14568,4304,-9,320,0,-1,-1,0
-6176,500,-14668,4304,32,357,-52,-1,-1,0
-6068,580,-14732,4304,-23,345,-58,-1,-1,0
-6116,592,-14688,4304,44,386,-39,-1,-1,0
856,13404,-9472,4304,-250,162,-118,-1,-1,0
-7128,664,-14348,4304,50,352,-72,-1,-1,0
-7096,628,-14164,4304,53,364,-24,-1,-1,0
-7216,676,-14256,4304,16,283,-39,-1,-1,0
-7152,680,-14192,4304,5,368,-17,-1,-1,0
-7132,668,-14332,4304,27,333,-21,-1,-1,0
-7068,668,-14356,4304,62,364,-36,-1,-1,0
-7052,712,-14232,4304,63,341,-33,-1,-1,0
-7124,684,-14184,4304,40,362,-74,-1,-1,0
-7164,688,-14416,4304,7,308,-32,-1,-1,0
-7176,704,-14272,4304,40,386,-28,-1,-1,0
-7148,688,-14212,4304,32,385,-41,-1,-1,0
-7152,680,-14212,4304,-1,339,-11,-1,-1,0
-7076,604,-14332,4304,25,446,-19,-1,-1,0
-7196,604,-14336,4304,67,304,-28,-1,-1,0
-7140,708,-14372,4304,35,364,18,-1,-1,0
-7136,640,-14268,4304,31,383,-1,-1,-1,0
-7068,648,-14352,4304,70,400,-30,-1,-1,0
-7080,656,-14224,4304,41,365,-47,-1,-1,0
-7120,608,-14320,4304,33,313,-15,-1,-1,0
2448,12552,-10044,4304,71,342,-24,-1,-1,0
2372,12468,-10096,4304,67,299,-25,-1,-1,0
2476,12500,-9996,4304,71,398,13,-1,-1,0
2248,12524,-10044,4304,2,386,20,-1,-1,0
2468,12492,-9844,4304,108,292,-46,-1,-1,0
2412,12540,-9980,4304,137,357,2,-1,-1,0
2340,12668,-10112,4304,-89,219,71,-1,-1,0
-4084,13876,-6072,4304,-714,-3034,-1320,-1,-1,1
-5252,14248,-5816,4304,147,-1717,-1321,-1,-1,1
-5504,14368,-6320,4304,399,1586,1052,-1,-1,1
-5296,14420,-5988,4304,171,2048,453,-1,-1,1
-5148,14096,-5472,4304,344,3336,1003,-1,-1,1
-4536,14636,-5848,4304,-444,-242,-15,-1,-1,1
-5336,14472,-5960,4304,526,-14,166,-1,-1,1
-3384,14520,-5100,4304,-256,-796,-474,-1,-1,1
-5200,14824,-5356,4304,622,-1904,-1171,-1,-1,1
-5052,14636,-5680,4304,-100,1759,331,-1,-1,1
-5976,14056,-4972,4304,227,627,158,-1,-1,1
-5936,14496,-5412,4304,728,-618,215,-1,-1,1
-5844,13896,-5488,4304,152,-621,-271,-1,-1,1
-5816,14044,-5320,4304,-461,1291,440,-1,-1,1
-5704,13700,-5120,4304,758,-909,-704,-1,-1,1
-5936,13924,-5248,4304,-498,593,-409,-1,-1,1
-6580,13696,-4976,4304,-445,-537,-717,-1,-1,1
-5792,14240,-5724,4304,644,760,32,-1,-1,1
-5940,14236,-5332,4304,184,562,584,-1,-1,1
-5212,14356,-5000,4304,-58,-631,-311,-1,-1,1
-5156,14200,-5620,4304,-44,472,72,-1,-1,1
-4720,14028,-5296,4304,-116,1888,567,-1,-1,1
-5096,13936,-5196,4304,423,1431,1226,-1,-1,1
-5336,14500,-5172,4304,-180,-96,-359,-1,-1,1
-4688,14300,-5368,4304,-229,-23,-24,-1,-1,1
-5844,14520,-5776,4304,693,-176,-392,-1,-1,1
-4536,14360,-5528,4304,-223,37,-90,-1,-1,1
-5132,14532,-5620,4304,580,1382,1235,-1,-1,1
-5596,14328,-5624,4304,300,-81,-299,-1,-1,1
-4832,14492,-5096,4304,122,-1293,-488,-1,-1,1
-5508,14268,-5476,4304,539,-105,67,-1,-1,1
-5720,14416,-5380,4304,326,297,23,-1,-1,1
-4800,14628,-5400,4304,-571,555,3,-1,-1,1
-5432,14544,-5020,4304,265,-1434,-959,-1,-1,1
-4668,14704,-4676,4304,-419,122,185,-1,-1,1
-5428,14352,-4388,4304,53,-254,-823,-1,-1,1
-4892,14732,-4564,4304,548,140,639,-1,-1,1
-5464,14348,-4396,4304,-151,1194,-495,-1,-1,1
-4820,14540,-4496,4304,38,2808,1313,-1,-1,1
-4752,14596,-4796,4304,-29,3,-30,-1,-1,1
-5380,14956,-4668,4304,602,-1504,-228,-1,-1,1
-4492,14648,-4884,4304,38,-1542,-561,-1,-1,1
-4552,14472,-5620,4304,530,-1293,-444,-1,-1,1
-6040,13912,-5312,4304,15,651,-74,-1,-1,1
-5560,14304,-5560,4304,102,1421,1052,-1,-1,1
-2552,15396,-3304,4304,175,-1914,1187,-1,-1,1
3548,932,-17292,4304,-768,-167,211,-1,-1,1
3560,944,-17356,4304,-789,-70,220,-1,-1,1
1392,11724,-11264,4304,-70,1252,-238,-1,-1,1
1392,11580,-11232,4304,25,126,17,-1,-1,1
1400,11628,-11264,4304,46,25,-78,-1,-1,1
1820,11640,-11320,4304,-41,1151,200,-1,-1,1
1068,11696,-11200,4304,63,284,58,-1,-1,1
924,11576,-11320,4304,71,135,111,-1,-1,1
960,11596,-11264,4304,-31,1085,216,-1,-1,1
1196,11512,-11320,4304,-15,23,22,-1,-1,1
1468,11600,-11300,4304,53,339,37,-1,-1,1
1412,11556,-11360,4304,176,343,5,-1,-1,1
1224,11476,-11336,4304,97,-221,-60,-1,-1,1
1580,11592,-11368,4304,-24,409,-89,-1,-1,1
1064,11620,-11288,4304,74,-118,105,-1,-1,1
1364,11624,-11316,4304,201,52,54,-1,-1,1
1416,11596,-11328,4304,39,284,-30,-1,-1,1
1332,11632,-11412,4304,24,757,22,-1,-1,1
1276,11596,-11324,4304,30,605,82,-1,-1,1
-6288,548,-14576,4320,38,407,-56,-1,-1,0
-6360,544,-14612,4320,0,347,-40,-1,-1,0
-6280,552,-14624,4320,87,372,3,-1,-1,0
-6348,532,-14588,4320,53,297,-9,-1,-1,0
-6020,596,-14604,4320,93,516,-41,-1,-1,0
-6140,600,-14588,4320,41,313,-20,-1,-1,0
-6100,532,-14564,4320,1,302,-32,-1,-1,0
-6176,464,-14676,4320,85,403,4,-1,-1,0
-6172,632,-14688,4320,15,330,-18,-1,-1,0
-6036,568,-14696,4320,12,425,-51,-1,-1,0
-6112,508,-14676,4320,47,337,-75,-1,-1,0
-6236,624,-14768,4320,-24,390,-35,-1,-1,0
-6144,568,-14636,4320,40,362,-38,-1,-1,0
-7140,672,-14344,4320,33,329,-65,-1,-1,0
-7148,732,-14328,4320,87,361,-16,-1,-1,0
-7092,620,-14240,4320,87,394,-27,-1,-1,0
-7052,648,-14352,4320,17,354,-34,-1,-1,0
-7036,684,-14288,4320,68,363,-43,-1,-1,0
-7204,692,-14260,4320,30,338,-46,-1,-1,0
-7136,628,-14264,4320,67,363,-37,-1,-1,0
-7104,712,-14248,4320,30,344,-44,-1,-1,0
-7112,708,-14320,4320,11,351,-31,-1,-1,0
-7156,724,-14280,4320,-20,347,-47,-1,-1,0
-7056,604,-14316,4320,48,327,-53,-1,-1,0
-7116,704,-14324,4320,61,355,-19,-1,-1,0
-7120,668,-14244,4320,52,339,-25,-1,-1,0
-7104,704,-14224,4320,45,338,-18,-1,-1,0
-7092,684,-14232,4320,32,328,-20,-1,-1,0
-7024,676,-14372,4320,38,407,-39,-1,-1,0
-7076,648,-14288,4320,54,389,-26,-1,-1,0
-7108,648,-14280,4320,6,332,-51,-1,-1,0
-7168,756,-14208,4320,18,343,-41,-1,-1,0
-7076,648,-14292,4320,17,370,-55,-1,-1,0
-7080,612,-14344,4320,30,334,0,-1,-1,0
-7156,688,-14360,4320,7,349,-35,-1,-1,0
-7080,680,-14300,4320,-10,383,-26,-1,-1,0
-7116,656,-14288,4320,85,352,-59,-1,-1,0
-7140,652,-14280,4320,35,345,-54,-1,-1,0
-7128,644,-14200,4320,12,351,-18,-1,-1,0
-7172,652,-14240,4320,-28,355,-46,-1,-1,0
-7076,644,-14396,4320,-10,384,-34,-1,-1,0
-7132,700,-14156,4320,22,346,-53,-1,-1,0
-7028,584,-14248,4320,84,507,-37,-1,-1,0
-7080,724,-14300,4320,72,399,-17,-1,-1,0
-7192,544,-14304,4320,57,284,-55,-1,-1,0
-7072,636,-14252,4320,43,374,-18,-1,-1,0
-7108,712,-14300,4320,44,312,-29,-1,-1,0
-7120,692,-14252,4320,59,350,-28,-1,-1,0
-7124,716,-14232,4320,9,400,2,-1,-1,0
-7116,700,-14316,4320,41,359,-71,-1,-1,0
-7208,640,-14316,4320,-28,335,-29,-1,-1,0
-7144,656,-14288,4320,15,329,-66,-1,-1,0
-7068,676,-14332,4320,71,366,-13,-1,-1,0
-7080,652,-14324,4320,41,372,-43,-1,-1,0
-7076,684,-14248,4320,57,304,-27,-1,-1,0
2576,12564,-9956,4320,138,477,-61,-1,-1,0
2440,12644,-10020,4320,70,262,-75,-1,-1,0
-3420,14344,-5640,4320,-599,-991,-1253,-1,-1,1
-5272,14704,-6752,4320,-44,4203,809,-1,-1,1
-4868,13992,-5036,4320,65,-3969,-2117,-1,-1,1
-5232,14708,-5772,4320,455,-1313,-63,-1,-1,1
-5472,14480,-5992,4320,102,1436,503,-1,-1,1
-4988,14672,-5244,4320,147,-297,108,-1,-1,1
-4952,14324,-5764,4320,866,-3495,-1712,-1,-1,1
-4720,14532,-5632,4320,-249,428,145,-1,-1,1
-6620,14224,-5232,4320,-207,1989,1193,-1,-1,1
-6400,14176,-5648,4320,446,-512,-726,-1,-1,1
-5104,14156,-5656,4320,-1307,2895,961,-1,-1,1
-4680,14348,-5428,4320,-333,582,-113,-1,-1,1
-5352,14260,-5564,4320,-151,-311,-667,-1,-1,1
-4808,14292,-5696,4320,-935,1219,347,-1,-1,1
-4896,13872,-4780,4320,399,1503,815,-1,-1,1
-5252,14228,-5232,4320,50,-2686,-1313,-1,-1,1
-5636,14344,-4480,4320,10,241,-40,-1,-1,1
-5032,14552,-4628,4320,-21,-209,-209,-1,-1,1
-5636,14880,-4944,4320,330,777,486,-1,-1,1
-5276,14508,-4544,4320,413,-594,-235,-1,-1,1
-5244,14564,-4720,4320,248,-797,-646,-1,-1,1
-4660,14212,-4160,4320,516,846,835,-1,-1,1
-4840,14104,-6296,4320,642,76,-49,-1,-1,1
-4324,13084,-8972,4320,-4010,-5522,-690,-1,-1,1
-4716,14228,-5960,4320,-643,1638,-18,-1,-1,1
-5432,14108,-5148,4320,-9,-99,-58,-1,-1,1
-5668,14524,-5472,4320,211,1114,440,-1,-1,1
-4712,14376,-5184,4320,-574,368,100,-1,-1,1
6276,11904,-9260,4320,-1048,2382,1279,-1,-1,1
6056,12532,-8900,4320,-182,-2843,-1209,-1,-1,1
6216,12368,-8392,4320,22,-814,-489,-1,-1,1
3508,996,-17372,4320,-768,98,158,-1,-1,1
3656,948,-17144,4320,-781,174,231,-1,-1,1
1508,11648,-11176,4320,-91,812,57,-1,-1,1
1460,11560,-11216,4320,70,236,17,-1,-1,1
1348,11616,-11380,4320,50,524,12,-1,-1,1
1392,11564,-11256,4320,76,414,-38,-1,-1,1
1416,11640,-11248,4320,-3,614,46,-1,-1,1
1412,11608,-11204,4320,45,254,-26,-1,-1,1
1504,11604,-11232,4320,83,-474,-159,-1,-1,1
1348,11580,-11272,4320,108,76,-114,-1,-1,1
1084,11500,-11320,4320,42,-137,-53,-1,-1,1
1396,11516,-11312,4320,14,430,-58,-1,-1,1
1256,11544,-11268,4320,109,177,21,-1,-1,1
1424,11604,-11292,4320,107,567,-64,-1,-1,1
1420,11400,-11364,4320,-9,372,-81,-1,-1,1
1424,11732,-11100,4320,114,459,177,-1,-1,1
1388,11564,-11248,4320,26,52,198,-1,-1,1
1468,11572,-11340,4320,28,669,73,-1,-1,1
1412,11608,-11300,4320,77,419,-11,-1,-1,1
1404,11592,-11356,4320,79,387,-38,-1,-1,1
1388,11504,-11216,4320,97,161,-38,-1,-1,1
1328,11604,-11264,4320,78,97,26,-1,-1,1
1344,11436,-11376,4320,68,373,-50,-1,-1,1
1392,11560,-11336,4320,51,233,-18,-1,-1,1
1412,11588,-11300,4320,73,392,-7,-1,-1,1
1492,11552,-11312,4320,14,753,-15,-1,-1,1
1028,11452,-11392,4320,60,145,9,-1,-1,1
1228,11636,-11316,4320,223,-43,58,-1,-1,1
1336,11776,-11280,4320,96,521,34,-1,-1,1
1300,11532,-11348,4320,59,136,-50,-1,-1,1
1268,11568,-11376,4320,9,501,62,-1,-1,1
1256,11580,-11284,4320,73,103,-95,-1,-1,1
1320,11564,-11344,4320,114,258,-5,-1,-1,1
-6276,584,-14604,4352,83,447,-28,-1,-1,0
-6160,440,-14588,4352,35,314,-23,-1,-1,0
-6200,488,-14732,4352,70,359,-40,-1,-1,0
-6208,528,-14644,4352,75,351,-58,-1,-1,0
-6184,488,-14708,4352,56,420,-43,-1,-1,0
-6172,644,-14724,4352,30,334,-64,-1,-1,0
-6140,516,-14640,4352,-2,328,-81,-1,-1,0
-6184,620,-14632,4352,-55,369,-62,-1,-1,0
-6184,592,-14700,4352,7,346,-41,-1,-1,0
-6164,552,-14688,4352,83,383,-20,-1,-1,0
-6216,564,-14628,4352,13,398,-81,-1,-1,0
-6144,516,-14704,4352,39,371,-10,-1,-1,0
-6124,548,-14664,4352,32,390,-14,-1,-1,0
788,13076,-9264,4352,189,381,10,-1,-1,0
840,13212,-9448,4352,158,395,-90,-1,-1,0
796,13080,-9308,4352,19,272,211,-1,-1,0
776,13108,-9268,4352,84,393,20,-1,-1,0
960,13156,-9420,4352,-49,300,-17,-1,-1,0
-7080,680,-14268,4352,75,354,-8,-1,-1,0
-7124,676,-14236,4352,39,334,-15,-1,-1,0
888,13080,-9472,4352,42,330,-29,-1,-1,0
-7076,704,-14292,4352,36,333,-49,-1,-1,0
-7096,644,-14308,4352,49,389,-30,-1,-1,0
-7172,696,-14132,4352,79,377,-44,-1,-1,0
-7120,592,-14240,4352,131,342,-33,-1,-1,0
-7000,728,-14248,4352,39,427,-31,-1,-1,0
-7156,688,-14300,4352,2,322,-23,-1,-1,0
-7132,624,-14300,4352,34,379,-27,-1,-1,0
-7204,636,-14184,4352,42,341,-22,-1,-1,0
-7152,636,-14264,4352,83,339,-48,-1,-1,0
-7064,540,-14312,4352,88,344,-49,-1,-1,0
-7120,680,-14324,4352,26,345,-28,-1,-1,0
-7092,688,-14396,4352,58,345,-46,-1,-1,0
-7164,652,-14260,4352,-2,313,-51,-1,-1,0
-7108,620,-14268,4352,60,346,-10,-1,-1,0
-7176,576,-14356,4352,42,368,-9,-1,-1,0
-7148,676,-14332,4352,33,402,-31,-1,-1,0
-7208,632,-14236,4352,49,391,-18,-1,-1,0
-7120,668,-14288,4352,58,354,-38,-1,-1,0
-7152,616,-14256,4352,83,346,-47,-1,-1,0
-7116,656,-14316,4352,11,382,-14,-1,-1,0
-7128,756,-14352,4352,106,367,-12,-1,-1,0
-7040,624,-14188,4352,22,379,-93,-1,-1,0
-7144,572,-14248,4352,12,421,-30,-1,-1,0
-7112,672,-14252,4352,46,372,-58,-1,-1,0
-7088,664,-14316,4352,51,363,-32,-1,-1,0
-7136,616,-14256,4352,14,367,-35,-1,-1,0
-7044,656,-14264,4352,16,328,-41,-1,-1,0
-7120,656,-14308,4352,63,355,-57,-1,-1,0
-7096,728,-14268,4352,69,389,18,-1,-1,0
-7064,672,-14244,4352,91,332,1,-1,-1,0
2400,12504,-10116,4352,43,359,9,-1,-1,0
2456,12456,-10068,4352,94,430,33,-1,-1,0
2436,12572,-10004,4352,4,295,-11,-1,-1,0
2372,12428,-10004,4352,15,309,-51,-1,-1,0
2356,12488,-9932,4352,42,318,-64,-1,-1,0
2380,12564,-9980,4352,41,388,38,-1,-1,0
2376,12604,-9924,4352,104,404,46,-1,-1,0
2352,12412,-10032,4352,152,355,13,-1,-1,0
-5812,14204,-5664,4352,596,-734,-478,-1,-1,1
-6212,14556,-5660,4352,519,603,299,-1,-1,1
-5076,14460,-5320,4352,120,674,62,-1,-1,1
-5596,14712,-4992,4352,713,-1041,-222,-1,-1,1
-5892,13804,-5652,4352,233,-796,-1019,-1,-1,1
-6228,14548,-6056,4352,640,67,160,-1,-1,1
-5604,13988,-5444,4352,273,-728,-394,-1,-1,1
-6324,14420,-5328,4352,296,120,-82,-1,-1,1
-4380,14644,-5164,4352,-292,231,205,-1,-1,1
-5172,14360,-5160,4352,-283,2008,250,-1,-1,1
-5312,14180,-5208,4352,546,-1338,-537,-1,-1,1
-1360,16064,-2728,4352,-134,1509,2433,-1,-1,1
5892,11624,-8940,4352,218,-1338,-896,-1,-1,1
7016,12220,-8580,4352,198,906,66,-1,-1,1
6344,12112,-8508,4352,388,1688,362,-1,-1,1
6600,12580,-8688,4352,-623,724,606,-1,-1,1
4676,12932,-8920,4352,-115,1628,-13,-1,-1,1
4852,13540,-8464,4352,-32,2517,1256,-1,-1,1
1396,11652,-11408,4352,61,143,48,-1,-1,1
1284,11600,-11244,4352,91,155,-13,-1,-1,1
1324,11552,-11452,4352,49,64,-12,-1,-1,1
1308,11532,-11236,4352,-42,523,120,-1,-1,1
1608,11620,-11468,4352,-1,929,36,-1,-1,1
1628,11512,-11276,4352,177,-77,-195,-1,-1,1
1404,11604,-11216,4352,57,170,-96,-1,-1,1
1372,11528,-11220,4352,71,359,-7,-1,-1,1
1452,11576,-11308,4352,81,350,-50,-1,-1,1
1388,11548,-11364,4352,62,439,4,-1,-1,1
1480,11644,-11344,4352,75,588,-46,-1,-1,1
1224,11544,-11368,4352,61,670,105,-1,-1,1
1184,11476,-11424,4352,70,423,39,-1,-1,1
1344,11460,-11460,4352,78,-29,-56,-1,-1,1
1296,11564,-11336,4352,55,636,8,-1,-1,1
1224,11636,-11444,4352,42,162,-31,-1,-1,1
1264,11468,-11404,4352,108,-182,-13,-1,-1,1
1228,13120,-9468,4368,75,365,-12,-1,-1,0
1396,13044,-9604,4368,8,317,32,-1,-1,0
-6400,556,-14684,4368,14,344,-7,-1,-1,0
1260,13068,-9428,4368,154,413,39,-1,-1,0
-6292,532,-14716,4368,84,410,-45,-1,-1,0
-6260,676,-14548,4368,82,438,-40,-1,-1,0
1296,13088,-9396,4368,129,429,1,-1,-1,0
-6324,588,-14664,4368,126,393,-70,-1,-1,0
-6360,552,-14480,4368,18,369,-24,-1,-1,0
-6296,560,-14656,4368,28,313,-59,-1,-1,0
-6244,468,-14620,4368,60,407,-204,-1,-1,0
-6356,720,-14652,4368,76,186,-138,-1,-1,0
-6208,492,-14704,4368,1,439,-82,-1,-1,0
-6252,592,-14724,4368,44,330,-38,-1,-1,0
-6324,628,-14664,4368,45,334,-42,-1,-1,0
-6220,476,-14544,4368,21,334,-14,-1,-1,0
-6196,540,-14632,4368,4,293,-13,-1,-1,0
-6140,548,-14700,4368,88,314,-49,-1,-1,0
-6148,540,-14628,4368,-7,351,-30,-1,-1,0
-6172,580,-14708,4368,58,312,-43,-1,-1,0
-6164,564,-14620,4368,70,327,0,-1,-1,0
-6048,632,-14632,4368,-6,402,-50,-1,-1,0
-6168,688,-14636,4368,21,375,-48,-1,-1,0
-6160,496,-14716,4368,60,352,-52,-1,-1,0
-6204,568,-14540,4368,54,384,-23,-1,-1,0
-6160,640,-14596,4368,113,382,-11,-1,-1,0
-6144,624,-14668,4368,54,407,-9,-1,-1,0
-6236,492,-14772,4368,66,325,-48,-1,-1,0
-6204,548,-14620,4368,20,449,-9,-1,-1,0
-6196,644,-14664,4368,-1,397,-28,-1,-1,0
-6180,576,-14580,4368,13,253,-30,-1,-1,0
-6160,584,-14720,4368,50,333,-28,-1,-1,0
-6204,504,-14616,4368,93,427,-59,-1,-1,0
-6216,576,-14648,4368,74,389,-65,-1,-1,0
452,13168,-9252,4368,306,393,65,-1,-1,0
496,13368,-9356,4368,24,359,273,-1,-1,0
692,13192,-9424,4368,144,331,170,-1,-1,0
892,13184,-9432,4368,33,293,-5,-1,-1,0
992,13188,-9388,4368,14,296,11,-1,-1,0
948,13120,-9452,4368,141,344,-38,-1,-1,0
-7064,696,-14336,4368,65,423,-34,-1,-1,0
-7156,696,-14252,4368,-24,298,-19,-1,-1,0
-7180,656,-14296,4368,9,316,4,-1,-1,0
-7144,616,-14212,4368,20,419,-28,-1,-1,0
-7192,580,-14328,4368,9,389,-56,-1,-1,0
-7036,588,-14252,4368,13,411,-6,-1,-1,0
-7176,632,-14280,4368,108,383,-32,-1,-1,0
-7132,656,-14268,4368,34,334,-4,-1,-1,0
-7144,644,-14168,4368,10,344,-21,-1,-1,0
-7172,596,-14216,4368,59,398,-42,-1,-1,0
-7000,700,-14340,4368,83,388,-5,-1,-1,0
-7104,596,-14220,4368,25,363,-21,-1,-1,0
-7092,696,-14332,4368,54,369,-60,-1,-1,0
-7044,680,-14256,4368,67,412,2,-1,-1,0
-7124,728,-14124,4368,16,351,-41,-1,-1,0
-7096,712,-14308,4368,43,376,-26,-1,-1,0
-7068,564,-14228,4368,31,387,-24,-1,-1,0
-7128,564,-14272,4368,95,302,-15,-1,-1,0
-7168,660,-14332,4368,-19,377,-17,-1,-1,0
-7152,556,-14188,4368,71,397,-16,-1,-1,0
-7144,616,-14236,4368,18,347,-20,-1,-1,0
-7152,660,-14200,4368,23,301,-35,-1,-1,0
-7152,624,-14188,4368,32,335,-6,-1,-1,0
-7096,644,-14312,4368,29,362,16,-1,-1,0
-7140,696,-14216,4368,48,370,-47,-1,-1,0
-7180,684,-14336,4368,48,393,-26,-1,-1,0
-7172,564,-14264,4368,66,428,-26,-1,-1,0
-7096,672,-14208,4368,77,356,-33,-1,-1,0
-7132,656,-14236,4368,33,329,-42,-1,-1,0
-7104,596,-14164,4368,5,327,-45,-1,-1,0
-7180,668,-14288,4368,26,357,-40,-1,-1,0
-7052,624,-14316,4368,121,486,4,-1,-1,0
-7028,620,-14288,4368,41,300,-63,-1,-1,0
-7072,688,-14224,4368,56,395,-45,-1,-1,0
-7188,656,-14300,4368,56,352,7,-1,-1,0
-7136,664,-14248,4368,61,345,-14,-1,-1,0
-6972,612,-14404,4368,43,444,-7,-1,-1,0
-7196,616,-14256,4368,-10,324,12,-1,-1,0
-7024,656,-14324,4368,63,331,-34,-1,-1,0
-6948,652,-14264,4368,80,380,12,-1,-1,0
-7044,672,-14240,4368,-7,417,1,-1,-1,0
-7088,792,-14368,4368,26,382,4,-1,-1,0
-7004,632,-14288,4368,54,360,22,-1,-1,0
-7060,660,-14404,4368,13,407,-29,-1,-1,0
-7112,692,-14228,4368,23,385,-50,-1,-1,0
-7016,616,-14224,4368,58,326,-51,-1,-1,0
-7112,696,-14312,4368,47,322,-33,-1,-1,0
-7108,736,-14408,4368,15,356,-48,-1,-1,0
-7028,644,-14256,4368,65,363,-26,-1,-1,0
-7032,576,-14272,4368,39,313,-33,-1,-1,0
2336,12500,-9984,4368,166,507,9,-1,-1,0
2368,12528,-9968,4368,-187,394,33,-1,-1,0
2280,12596,-9832,4368,112,435,-257,-1,-1,0
2336,12616,-9904,4368,90,310,-18,-1,-1,0
2296,12544,-9972,4368,134,245,-8,-1,-1,0
2300,12580,-10012,4368,65,345,7,-1,-1,0
2416,12556,-9996,4368,150,530,13,-1,-1,0
2384,12448,-10032,4368,114,548,72,-1,-1,0
2328,12432,-9944,4368,205,449,37,-1,-1,0
2340,12516,-10072,4368,52,291,23,-1,-1,0
2316,12500,-10020,4368,152,391,27,-1,-1,0
2420,12512,-10124,4368,69,356,30,-1,-1,0
-6112,13940,-5168,4368,156,-1863,-1110,-1,-1,1
-5264,14428,-5812,4368,1045,61,802,-1,-1,1
-5000,14364,-5852,4368,190,-619,-563,-1,-1,1
-4620,14792,-5380,4368,-802,590,-403,-1,-1,1
-5024,14432,-4664,4368,146,-70,-147,-1,-1,1
-5824,14452,-4484,4368,-359,396,69,-1,-1,1
-5532,14004,-5412,4368,-417,-553,-1333,-1,-1,1
-5148,13780,-5468,4368,31,1719,892,-1,-1,1
-5212,14192,-5588,4368,533,29,609,-1,-1,1
-5016,14316,-5324,4368,232,214,43,-1,-1,1
-5616,14308,-5092,4368,197,-1928,-1012,-1,-1,1
-4836,14252,-5076,4368,-122,2885,724,-1,-1,1
-5052,14200,-5048,4368,-215,2119,866,-1,-1,1
-4944,14416,-4052,4368,-964,728,215,-1,-1,1
-100,16288,-2232,4368,-661,854,1470,-1,-1,1
7108,11292,-8556,4368,740,-2643,-2008,-1,-1,1
6296,11740,-8652,4368,949,768,-521,-1,-1,1
5472,12476,-9620,4368,-1625,4228,1297,-1,-1,1
5876,12412,-9184,4368,-711,566,488,-1,-1,1
5912,12332,-8636,4368,762,950,507,-1,-1,1
6208,12496,-8800,4368,-744,153,561,-1,-1,1
6372,12320,-8500,4368,15,-1684,-529,-1,-1,1
6016,12452,-8824,4368,545,3280,1031,-1,-1,1
6268,12096,-8580,4368,76,1433,126,-1,-1,1
5544,12632,-8580,4368,-358,-1239,-506,-1,-1,1
4176,13212,-8040,4368,-92,-470,-11,-1,-1,1
4428,13392,-8160,4368,-94,107,29,-1,-1,1
4524,13388,-7940,4368,-200,268,267,-1,-1,1
5012,13420,-7756,4368,86,619,-479,-1,-1,1
4608,13496,-7820,4368,-150,145,247,-1,-1,1
3876,13632,-7472,4368,-103,-259,-453,-1,-1,1
3992,14008,-7692,4368,163,2983,872,-1,-1,1
4316,13516,-7996,4368,624,388,85,-1,-1,1
3912,13196,-7664,4368,215,556,98,-1,-1,1
4052,13344,-7908,4368,964,1446,355,-1,-1,1
3852,13164,-7776,4368,393,2511,666,-1,-1,1
3336,13688,-7948,4368,-50,259,-69,-1,-1,1
3608,14272,-7548,4368,-63,-423,107,-1,-1,1
3252,13972,-6628,4368,291,-146,-344,-1,-1,1
1952,14360,-7100,4368,176,770,256,-1,-1,1
3572,1020,-17240,4368,-797,138,214,-1,-1,1
3808,856,-17256,4368,-772,88,151,-1,-1,1
3612,1068,-17380,4368,-831,1,198,-1,-1,1
1480,11572,-11372,4368,47,43,-15,-1,-1,1
1416,11636,-11220,4368,28,605,71,-1,-1,1
1268,11440,-11240,4368,34,-513,78,-1,-1,1
1404,11564,-11272,4368,97,513,-9,-1,-1,1
1448,11652,-11216,4368,2,-108,-108,-1,-1,1
1304,11552,-11376,4368,151,-99,-27,-1,-1,1
1216,11572,-11212,4368,56,459,123,-1,-1,1
1520,11612,-11244,4368,21,354,-32,-1,-1,1
1340,11588,-11344,4368,38,220,-4,-1,-1,1
1328,11452,-11320,4368,56,236,-62,-1,-1,1
1452,11676,-11136,4368,113,460,60,-1,-1,1
1404,11556,-11388,4368,52,622,99,-1,-1,1
1372,11528,-11248,4368,45,389,-9,-1,-1,1
1416,11560,-11260,4368,54,330,-20,-1,-1,1
1328,11496,-11464,4368,26,85,-51,-1,-1,1
1288,11636,-11208,4368,9,62,-7,-1,-1,1
1452,11612,-11372,4368,90,306,-66,-1,-1,1
1360,11664,-11252,4368,108,134,42,-1,-1,1
1140,11620,-11280,4368,104,363,18,-1,-1,1
1288,11584,-11236,4368,-23,1236,69,-1,-1,1
1312,11544,-11340,4368,76,-95,-58,-1,-1,1
1132,11552,-11304,4368,59,64,34,-1,-1,1
1344,11612,-11356,4368,100,246,25,-1,-1,1
1272,11552,-11372,4368,41,292,-29,-1,-1,1
1356,11568,-11388,4368,81,200,-23,-1,-1,1
1320,11552,-11348,4368,39,422,-4,-1,-1,1
1324,11536,-11284,4368,33,697,-44,-1,-1,1
1216,11688,-11208,4368,74,272,-123,-1,-1,1
1356,11536,-11304,4368,96,29,-62,-1,-1,1
1288,11532,-11232,4368,78,27,-78,-1,-1,1
1300,11556,-11384,4368,110,287,-35,-1,-1,1
1196,11624,-11264,4368,62,590,30,-1,-1,1
1356,11640,-11356,4368,12,535,32,-1,-1,1
1308,11616,-11368,4368,81,508,23,-1,-1,1
1260,11540,-11324,4368,40,562,49,-1,-1,1
1240,11564,-11396,4368,81,260,-85,-1,-1,1
1308,11596,-11400,4368,110,636,62,-1,-1,1
1280,11648,-11324,4368,54,250,14,-1,-1,1
1280,11548,-11312,4368,26,701,48,-1,-1,1
1300,11496,-11392,4368,77,286,-3,-1,-1,1
1168,11632,-11372,4368,63,53,-61,-1,-1,1
1480,11668,-11152,4368,-9,569,4,-1,-1,1
1224,11636,-11228,4368,92,-19,-18,-1,-1,1
1260,11560,-11452,4368,109,132,11,-1,-1,1
2360,11104,-12332,4368,112,-1181,585,-1,-1,1
1212,13032,-9464,4400,77,401,7,-1,-1,0
1412,13008,-9516,4400,29,278,-18,-1,-1,0
1164,13052,-9456,4400,-16,298,37,-1,-1,0
-6272,588,-14696,4400,19,323,-31,-1,-1,0
-6164,480,-14640,4400,-16,366,-14,-1,-1,0
-6100,568,-14648,4400,45,328,-72,-1,-1,0
-6208,504,-14628,4400,37,402,-64,-1,-1,0
-6136,592,-14612,4400,119,408,13,-1,-1,0
-6044,520,-14632,4400,-7,372,-102,-1,-1,0
-6080,540,-14740,4400,78,401,-38,-1,-1,0
-6068,544,-14756,4400,80,385,0,-1,-1,0
-6220,564,-14672,4400,27,327,-78,-1,-1,0
-6200,560,-14664,4400,23,353,-12,-1,-1,0
-6132,552,-14708,4400,76,370,1,-1,-1,0
-6100,572,-14676,4400,6,364,-22,-1,-1,0
-6080,608,-14724,4400,55,310,-40,-1,-1,0
-6108,528,-14644,4400,81,339,-9,-1,-1,0
-6268,560,-14520,4400,55,326,-40,-1,-1,0
-6280,524,-14548,4400,-11,347,-15,-1,-1,0
-6156,556,-14624,4400,56,334,-11,-1,-1,0
-6184,512,-14692,4400,34,454,-39,-1,-1,0
-6188,620,-14672,4400,50,326,-47,-1,-1,0
-6188,564,-14648,4400,21,361,-65,-1,-1,0
-6068,552,-14692,4400,20,367,-72,-1,-1,0
-6200,616,-14736,4400,49,332,-28,-1,-1,0
-6156,512,-14576,4400,38,350,-27,-1,-1,0
-6136,496,-14732,4400,132,334,-36,-1,-1,0
-6116,608,-16516,4400,-652,204,173,-1,-1,0
856,13208,-9400,4400,132,314,-9,-1,-1,0
800,13132,-9324,4400,36,329,-11,-1,-1,0
788,13196,-9312,4400,106,353,-24,-1,-1,0
892,13156,-9396,4400,4,443,-16,-1,-1,0
960,13224,-9436,4400,-37,304,-42,-1,-1,0
976,13200,-9376,4400,-54,327,27,-1,-1,0
808,13144,-9256,4400,51,268,10,-1,-1,0
944,13000,-9504,4400,34,339,51,-1,-1,0
-7152,688,-14232,4400,14,377,-15,-1,-1,0
-7084,672,-14292,4400,19,349,-50,-1,-1,0
-7108,692,-14308,4400,89,412,-38,-1,-1,0
-7148,616,-14300,4400,72,403,-26,-1,-1,0
-7152,672,-14112,4400,14,321,-51,-1,-1,0
-7152,592,-14376,4400,28,339,12,-1,-1,0
-7108,660,-14308,4400,-6,350,-41,-1,-1,0
-7112,676,-14320,4400,20,363,-46,-1,-1,0
-7132,564,-14248,4400,66,373,-50,-1,-1,0
872,12996,-9532,4400,101,323,-36,-1,-1,0
-7140,604,-14376,4400,51,363,-28,-1,-1,0
-7052,680,-14348,4400,78,319,-35,-1,-1,0
-7172,648,-14276,4400,44,333,-31,-1,-1,0
-7152,692,-14192,4400,34,310,-60,-1,-1,0
-7168,652,-14324,4400,56,378,-39,-1,-1,0
-7124,756,-14344,4400,15,341,-11,-1,-1,0
-7076,652,-14360,4400,0,349,-45,-1,-1,0
-7088,688,-14340,4400,85,372,-20,-1,-1,0
-7120,700,-14216,4400,43,350,-62,-1,-1,0
-7112,612,-14264,4400,58,403,-19,-1,-1,0
-7188,596,-14212,4400,53,414,13,-1,-1,0
-7156,652,-14408,4400,9,334,-45,-1,-1,0
-7036,712,-14308,4400,44,350,-25,-1,-1,0
-7032,600,-14308,4400,64,368,-65,-1,-1,0
-7152,624,-14300,4400,58,363,-51,-1,-1,0
-7144,588,-14292,4400,-10,303,-47,-1,-1,0
-7088,712,-14328,4400,-24,290,-109,-1,-1,0
-7116,696,-14232,4400,69,386,-33,-1,-1,0
-6980,752,-14316,4400,67,325,25,-1,-1,0
-7060,692,-14288,4400,31,308,-36,-1,-1,0
-7120,656,-14376,4400,11,356,5,-1,-1,0
-7132,664,-14228,4400,32,372,-40,-1,-1,0
-7012,648,-14288,4400,61,320,13,-1,-1,0
-7080,656,-14392,4400,-6,356,-29,-1,-1,0
-7044,672,-14196,4400,68,339,-6,-1,-1,0
-7128,616,-14324,4400,2,318,-45,-1,-1,0
-7072,704,-14324,4400,19,376,-17,-1,-1,0
-7024,628,-14324,4400,1,320,-35,-1,-1,0
-7196,700,-14316,4400,9,337,-39,-1,-1,0
-7124,688,-14304,4400,66,395,-60,-1,-1,0
-6964,616,-14380,4400,79,308,-22,-1,-1,0
-7068,628,-14232,4400,14,362,-53,-1,-1,0
-7048,672,-14320,4400,21,368,-70,-1,-1,0
-7076,712,-14232,4400,23,355,-17,-1,-1,0
-7020,660,-14312,4400,60,436,25,-1,-1,0
584,12556,-10108,4400,65,313,-55,-1,-1,0
2644,12492,-9932,4400,110,428,38,-1,-1,0
2512,12484,-10060,4400,8,113,-75,-1,-1,0
2324,12592,-10004,4400,44,308,10,-1,-1,0
2348,12496,-9904,4400,89,407,27,-1,-1,0
2312,12616,-9952,4400,69,355,8,-1,-1,0
2288,12496,-9968,4400,37,267,-40,-1,-1,0
2436,12476,-9964,4400,106,345,-3,-1,-1,0
2368,12620,-9972,4400,7,337,32,-1,-1,0
2388,12460,-9940,4400,7,351,45,-1,-1,0
2344,12572,-9936,4400,116,297,-3,-1,-1,0
2296,12552,-10036,4400,-37,319,-66,-1,-1,0
2352,12588,-9976,4400,43,323,-14,-1,-1,0
2316,12476,-9988,4400,80,368,-5,-1,-1,0
2368,12532,-9976,4400,42,370,55,-1,-1,0
2456,12508,-10032,4400,140,467,-15,-1,-1,0
2356,12452,-9944,4400,39,288,-42,-1,-1,0
-5136,13920,-5432,4400,-50,1611,123,-1,-1,1
-5176,14240,-5476,4400,-359,749,89,-1,-1,1
-5876,14136,-5688,4400,91,-304,-1181,-1,-1,1
-6004,14284,-5264,4400,337,719,532,-1,-1,1
-4832,14488,-5056,4400,-686,218,160,-1,-1,1
-3652,14836,-3396,4400,-1319,1084,1234,-1,-1,1
4944,12916,-8024,4400,696,2481,738,-1,-1,1
4592,13156,-8036,4400,-190,769,13,-1,-1,1
4356,13344,-8092,4400,-68,335,97,-1,-1,1
4052,13244,-8036,4400,601,997,134,-1,-1,1
4544,13392,-7860,4400,-550,-1294,-547,-1,-1,1
4312,13256,-8100,4400,-698,318,94,-1,-1,1
4768,13280,-7936,4400,-373,482,-224,-1,-1,1
4036,13852,-7960,4400,144,1224,728,-1,-1,1
3448,13948,-7636,4400,-479,-170,-144,-1,-1,1
2664,13984,-7640,4400,88,-55,-393,-1,-1,1
2660,13888,-7244,4400,520,-523,-431,-1,-1,1
3612,13844,-7416,4400,-181,1242,601,-1,-1,1
3900,14180,-7788,4400,380,1635,408,-1,-1,1
4028,14012,-7536,4400,-46,438,639,-1,-1,1
3872,13832,-7152,4400,-117,-1053,-284,-1,-1,1
3616,13912,-7164,4400,-358,-529,72,-1,-1,1
3628,14100,-6924,4400,-553,-2369,-944,-1,-1,1
3940,13972,-7164,4400,104,1605,460,-1,-1,1
3944,13968,-7148,4400,-183,653,122,-1,-1,1
3664,13944,-6856,4400,132,1204,155,-1,-1,1
1888,14100,-7104,4400,926,2931,675,-1,-1,1
3252,11540,-11340,4400,-1048,656,219,-1,-1,1
2656,11424,-11116,4400,211,661,83,-1,-1,1
3600,1016,-17324,4400,-800,195,222,-1,-1,1
3608,972,-17328,4400,-833,154,178,-1,-1,1
3560,920,-17264,4400,-759,161,169,-1,-1,1
3372,1056,-17324,4400,-736,80,182,-1,-1,1
3568,1088,-17308,4400,-841,245,202,-1,-1,1
3640,1024,-17252,4400,-736,178,179,-1,-1,1
3468,1016,-17332,4400,-779,137,190,-1,-1,1
3460,992,-17352,4400,-816,118,184,-1,-1,1
1356,11680,-11256,4400,201,-579,5,-1,-1,1
1432,11604,-11312,4400,78,-514,29,-1,-1,1
1448,11432,-11404,4400,77,530,-141,-1,-1,1
1456,11568,-11272,4400,34,682,-6,-1,-1,1
1420,11540,-11376,4400,43,150,11,-1,-1,1
1256,11524,-11456,4400,-49,367,-309,-1,-1,1
1256,11680,-11228,4400,86,368,32,-1,-1,1
1328,11652,-11260,4400,59,471,14,-1,-1,1
1532,11596,-11276,4400,145,290,-84,-1,-1,1
1356,11536,-11304,4400,75,325,33,-1,-1,1
1432,11468,-11360,4400,-11,596,91,-1,-1,1
1352,11580,-11384,4400,67,376,13,-1,-1,1
1256,11540,-11436,4400,23,125,-70,-1,-1,1
1268,11660,-11268,4400,37,390,-6,-1,-1,1
1352,11624,-11408,4400,55,529,-40,-1,-1,1
1336,11520,-11332,4400,35,577,6,-1,-1,1
1356,11584,-11284,4400,5,471,-38,-1,-1,1
1208,11536,-11436,4400,132,85,-33,-1,-1,1
1200,11532,-11240,4400,92,102,-37,-1,-1,1
1220,11572,-11332,4400,55,344,17,-1,-1,1
1232,11644,-11196,4400,90,-86,-73,-1,-1,1
1252,11620,-11372,4400,60,445,53,-1,-1,1
1228,11596,-11268,4400,105,95,-63,-1,-1,1
1216,11632,-11228,4400,44,624,70,-1,-1,1
1300,11556,-11276,4400,26,530,-11,-1,-1,1
1236,11580,-11288,4400,46,508,48,-1,-1,1
1200,11480,-11288,4400,35,442,-76,-1,-1,1
1248,11576,-11180,4400,75,69,14,-1,-1,1
1252,11736,-11164,4400,129,424,44,-1,-1,1
-6264,548,-14700,4416,-28,317,-24,-1,-1,0
-6216,556,-14680,4416,45,421,-28,-1,-1,0
-6144,552,-14640,4416,65,351,-69,-1,-1,0
-6208,344,-14648,4416,129,474,54,-1,-1,0
-6212,560,-14644,4416,9,335,-43,-1,-1,0
-6164,516,-14728,4416,38,370,-22,-1,-1,0
-6204,620,-14676,4416,41,357,-11,-1,-1,0
912,13196,-9304,4416,25,420,111,-1,-1,0
820,13216,-9408,4416,-65,353,-60,-1,-1,0
896,13168,-9356,4416,154,418,-35,-1,-1,0
1112,12984,-9476,4416,90,319,62,-1,-1,0
844,13008,-9376,4416,190,268,-29,-1,-1,0
1012,13188,-9476,4416,-86,279,-18,-1,-1,0
848,13084,-9344,4416,17,371,40,-1,-1,0
-7028,644,-14332,4416,115,297,-26,-1,-1,0
928,13036,-9476,4416,42,318,17,-1,-1,0
-7080,644,-14272,4416,43,388,-26,-1,-1,0
-7088,596,-14296,4416,113,369,-48,-1,-1,0
-7152,628,-14312,4416,73,411,-29,-1,-1,0
-7052,644,-14224,4416,84,364,-66,-1,-1,0
-7040,724,-14348,4416,58,400,-50,-1,-1,0
-7060,648,-14332,4416,49,381,-17,-1,-1,0
-7116,588,-14304,4416,77,286,-37,-1,-1,0
-7184,676,-14304,4416,-6,323,-72,-1,-1,0
-7152,772,-14160,4416,31,381,-55,-1,-1,0
-7080,740,-14240,4416,72,397,-57,-1,-1,0
-7044,640,-14332,4416,18,356,-9,-1,-1,0
-7128,704,-14308,4416,-3,389,-9,-1,-1,0
-7024,628,-14320,4416,60,337,-39,-1,-1,0
-7036,584,-14320,4416,45,377,-17,-1,-1,0
-6996,672,-14396,4416,-9,369,-16,-1,-1,0
-7048,608,-14292,4416,90,433,36,-1,-1,0
-7012,664,-14308,4416,50,341,-34,-1,-1,0
-7084,628,-14196,4416,45,308,-27,-1,-1,0
548,12268,-10200,4416,168,314,109,-1,-1,0
2356,12472,-9992,4416,36,337,-18,-1,-1,0
2348,12480,-10116,4416,13,300,-7,-1,-1,0
2444,12552,-9968,4416,129,310,-51,-1,-1,0
-4968,14540,-4912,4416,-289,-108,67,-1,-1,1
1072,16072,-2576,4416,108,491,453,-1,-1,1
4652,13472,-7996,4416,-25,-203,36,-1,-1,1
4696,13476,-7248,4416,30,1679,-375,-1,-1,1
2684,13604,-7932,4416,529,-417,249,-1,-1,1
3876,13552,-7780,4416,-131,-258,-153,-1,-1,1
3936,13556,-7700,4416,54,996,223,-1,-1,1
3744,13792,-7972,4416,-1432,-1213,164,-1,-1,1
2588,14228,-7260,4416,-93,-1013,-387,-1,-1,1
3380,14248,-7168,4416,-240,-1466,-510,-1,-1,1
3812,13952,-6812,4416,-157,-1436,-772,-1,-1,1
3232,14360,-7352,4416,-302,-284,-79,-1,-1,1
3636,14132,-6816,4416,-175,-566,-344,-1,-1,1
3604,14164,-6788,4416,-309,968,276,-1,-1,1
3748,14236,-6804,4416,77,1217,241,-1,-1,1
4368,10880,-10664,4416,2214,1324,179,-1,-1,1
3636,1076,-17240,4416,-846,221,192,-1,-1,1
3600,984,-17224,4416,-799,-7,195,-1,-1,1
3728,1044,-17308,4416,-809,122,107,-1,-1,1
1572,11548,-11232,4416,86,-407,-55,-1,-1,1
1540,11572,-11188,4416,30,552,-67,-1,-1,1
1412,11560,-11316,4416,120,406,33,-1,-1,1
1432,11688,-11212,4416,23,488,15,-1,-1,1
1272,11576,-11300,4416,151,-234,-179,-1,-1,1
1208,11604,-11252,4416,41,53,-6,-1,-1,1
1400,11616,-11268,4416,33,745,83,-1,-1,1
1384,11608,-11348,4416,33,654,4,-1,-1,1
1284,11560,-11360,4416,110,-165,-56,-1,-1,1
1268,11576,-11296,4416,27,474,18,-1,-1,1
1264,11592,-11252,4416,73,141,-6,-1,-1,1
1280,11600,-11364,4416,55,425,-29,-1,-1,1
1136,11520,-11420,4416,101,212,-70,-1,-1,1
1288,11568,-11240,4416,52,654,43,-1,-1,1
1272,11556,-11316,4416,110,367,-117,-1,-1,1
1208,11512,-11300,4416,55,147,-21,-1,-1,1
1044,11600,-11436,4416,76,43,-62,-1,-1,1
1412,11276,-11636,4416,-58,472,-223,-1,-1,1
1256,11500,-11356,4416,91,124,-95,-1,-1,1
1016,12964,-9448,4432,64,317,33,-1,-1,0
1276,12936,-9488,4432,100,350,-18,-1,-1,0
1280,12980,-9484,4432,91,416,18,-1,-1,0
1128,13076,-9468,4432,68,372,-7,-1,-1,0
1116,13000,-9564,4432,35,172,-59,-1,-1,0
-6248,572,-14624,4432,41,355,-15,-1,-1,0
-6116,472,-14684,4432,88,336,-84,-1,-1,0
972,12988,-9668,4432,122,277,28,-1,-1,0
-6100,584,-14716,4432,40,369,32,-1,-1,0
-6080,444,-14712,4432,60,383,-51,-1,-1,0
1072,12928,-9584,4432,-6,228,-14,-1,-1,0
-6040,644,-14672,4432,86,385,-10,-1,-1,0
-6180,536,-14736,4432,52,347,-8,-1,-1,0
-6180,528,-14772,4432,25,330,-30,-1,-1,0
1308,12968,-9604,4432,55,387,28,-1,-1,0
-6140,600,-14620,4432,73,341,-34,-1,-1,0
-6180,544,-14648,4432,81,339,-71,-1,-1,0
-6176,612,-14728,4432,54,336,-33,-1,-1,0
-6220,552,-14660,4432,29,363,-32,-1,-1,0
-6172,532,-14640,4432,51,347,-43,-1,-1,0
-6248,628,-14572,4432,14,340,-51,-1,-1,0
1212,12936,-9580,4432,13,304,6,-1,-1,0
-6220,648,-14600,4432,46,409,-82,-1,-1,0
1092,13004,-9552,4432,100,511,28,-1,-1,0
-6172,560,-14712,4432,105,358,-15,-1,-1,0
-6132,560,-14616,4432,27,355,-43,-1,-1,0
-6148,588,-14648,4432,56,392,-52,-1,-1,0
-6176,612,-14656,4432,90,353,-37,-1,-1,0
-6124,648,-14768,4432,19,437,-44,-1,-1,0
-6236,664,-14624,4432,-32,338,-20,-1,-1,0
-6284,480,-14584,4432,-32,350,-34,-1,-1,0
820,13184,-9344,4432,-42,312,99,-1,-1,0
736,13188,-9372,4432,-40,280,-15,-1,-1,0
844,13104,-9396,4432,22,346,-6,-1,-1,0
908,13212,-9412,4432,91,330,-45,-1,-1,0
888,13064,-9452,4432,64,310,74,-1,-1,0
888,13132,-9316,4432,32,381,44,-1,-1,0
932,13140,-9444,4432,123,408,-9,-1,-1,0
948,13120,-9488,4432,-2,242,26,-1,-1,0
928,13156,-9420,4432,20,313,15,-1,-1,0
984,13104,-9320,4432,115,359,-58,-1,-1,0
920,13096,-9448,4432,197,420,-14,-1,-1,0
968,13056,-9316,4432,62,319,-1,-1,-1,0
972,13076,-9452,4432,46,324,-74,-1,-1,0
964,13064,-9432,4432,31,190,-8,-1,-1,0
900,13108,-9376,4432,-122,209,-11,-1,-1,0
960,13040,-9368,4432,66,397,-3,-1,-1,0
1008,13040,-9500,4432,11,272,67,-1,-1,0
1084,13072,-9360,4432,-75,243,6,-1,-1,0
896,13076,-9472,4432,111,450,68,-1,-1,0
-7068,672,-14368,4432,72,408,-60,-1,-1,0
1148,12932,-9332,4432,130,264,-58,-1,-1,0
-7140,568,-14200,4432,47,376,-52,-1,-1,0
992,13068,-9504,4432,9,477,-58,-1,-1,0
-7140,708,-14288,4432,19,360,-36,-1,-1,0
-7188,580,-14380,4432,35,363,-64,-1,-1,0
968,13120,-9448,4432,13,359,39,-1,-1,0
-7132,716,-14264,4432,78,375,-12,-1,-1,0
-7092,664,-14356,4432,78,373,-18,-1,-1,0
-7056,660,-14236,4432,40,390,-59,-1,-1,0
-7104,700,-14256,4432,4,373,-31,-1,-1,0
-7144,688,-14172,4432,32,356,-29,-1,-1,0
-7088,668,-14272,4432,98,363,-28,-1,-1,0
-7160,664,-14200,4432,68,328,-24,-1,-1,0
1056,13112,-9448,4432,128,275,-107,-1,-1,0
-7116,632,-14216,4432,33,345,-41,-1,-1,0
908,13048,-9368,4432,3,293,20,-1,-1,0
-7132,692,-14300,4432,-3,351,-14,-1,-1,0
-7180,628,-14296,4432,14,375,-39,-1,-1,0
-7108,636,-14292,4432,65,395,-56,-1,-1,0
1040,13092,-9404,4432,85,382,-38,-1,-1,0
-7120,640,-14276,4432,19,406,-15,-1,-1,0
980,13048,-9532,4432,196,435,17,-1,-1,0
-7132,636,-14200,4432,64,393,-36,-1,-1,0
-7168,588,-14388,4432,22,342,-26,-1,-1,0
976,13072,-9488,4432,-64,411,-74,-1,-1,0
-7072,764,-14320,4432,83,382,-45,-1,-1,0
-7052,672,-14332,4432,45,339,-32,-1,-1,0
888,13012,-9536,4432,149,340,-63,-1,-1,0
-7012,624,-14200,4432,81,363,-30,-1,-1,0
-7060,680,-14184,4432,74,570,-30,-1,-1,0
-7136,652,-14284,4432,18,323,-42,-1,-1,0
-7160,664,-14260,4432,41,350,-61,-1,-1,0
-7020,616,-14144,4432,-26,378,-65,-1,-1,0
-7216,684,-14224,4432,-7,316,-49,-1,-1,0
-7068,668,-14260,4432,11,388,-45,-1,-1,0
-7116,676,-14276,4432,29,369,-36,-1,-1,0
-7168,720,-14268,4432,64,368,-4,-1,-1,0
1012,12868,-9632,4432,79,286,38,-1,-1,0
-7084,668,-14300,4432,55,438,-33,-1,-1,0
-7104,668,-14300,4432,22,333,-32,-1,-1,0
-7096,664,-14280,4432,78,377,-31,-1,-1,0
-7112,720,-14188,4432,20,389,17,-1,-1,0
1140,13024,-9692,4432,32,248,-34,-1,-1,0
-7136,680,-14304,4432,103,322,-63,-1,-1,0
-7076,764,-14200,4432,75,407,-51,-1,-1,0
-7092,720,-14292,4432,66,394,-12,-1,-1,0
-7108,600,-14296,4432,62,386,-37,-1,-1,0
932,12784,-9700,4432,67,322,22,-1,-1,0
1040,12892,-9684,4432,165,394,-119,-1,-1,0
-7064,720,-14296,4432,55,405,-12,-1,-1,0
-6996,716,-14204,4432,46,364,-42,-1,-1,0
1060,12824,-9688,4432,87,306,43,-1,-1,0
-7208,652,-14344,4432,75,252,-67,-1,-1,0
-7072,636,-14376,4432,42,288,-21,-1,-1,0
-7004,664,-14312,4432,72,392,-42,-1,-1,0
-7112,664,-14332,4432,75,356,-18,-1,-1,0
-6976,604,-14264,4432,72,321,-27,-1,-1,0
-7200,664,-14184,4432,3,362,-48,-1,-1,0
-7012,684,-14292,4432,16,352,-15,-1,-1,0
-7044,664,-14300,4432,60,345,-30,-1,-1,0
-7168,696,-14296,4432,-6,390,-41,-1,-1,0
-6924,748,-14216,4432,55,354,-67,-1,-1,0
-7032,716,-14332,4432,61,418,-75,-1,-1,0
-7152,632,-14272,4432,33,379,-17,-1,-1,0
-7156,612,-14064,4432,25,323,-50,-1,-1,0
-7072,648,-14220,4432,8,310,-39,-1,-1,0
-7044,740,-14252,4432,47,423,25,-1,-1,0
-7096,640,-14308,4432,100,311,2,-1,-1,0
-7016,632,-14240,4432,77,392,-41,-1,-1,0
-7140,644,-14292,4432,45,323,-41,-1,-1,0
-7216,648,-14176,4432,-72,325,-52,-1,-1,0
-6992,620,-14204,4432,73,396,-100,-1,-1,0
-7096,588,-14324,4432,26,346,-64,-1,-1,0
-7008,644,-14408,4432,37,342,-41,-1,-1,0
-7144,640,-14276,4432,32,363,-37,-1,-1,0
-7112,616,-14324,4432,40,364,-20,-1,-1,0
-7084,656,-14300,4432,60,327,-28,-1,-1,0
-7064,696,-14332,4432,-74,489,-39,-1,-1,0
-7052,684,-14388,4432,19,346,-73,-1,-1,0
-7052,664,-14332,4432,-7,283,-36,-1,-1,0
-7076,636,-14240,4432,34,320,-32,-1,-1,0
-6996,644,-14300,4432,3,353,-40,-1,-1,0
-7104,692,-14352,4432,27,364,-46,-1,-1,0
-7064,580,-14276,4432,30,368,-32,-1,-1,0
-7060,580,-14320,4432,46,349,-54,-1,-1,0
1032,12592,-9924,4432,2,307,19,-1,-1,0
1060,12632,-10032,4432,8,361,19,-1,-1,0
1196,12556,-10192,4432,116,307,-98,-1,-1,0
808,12636,-9948,4432,-26,295,-32,-1,-1,0
332,12920,-9712,4432,104,385,-43,-1,-1,0
384,12924,-9784,4432,34,318,7,-1,-1,0
312,12824,-9868,4432,161,364,-57,-1,-1,0
480,12620,-10028,4432,68,490,115,-1,-1,0
692,12720,-10108,4432,93,310,-27,-1,-1,0
668,12700,-10116,4432,27,322,-68,-1,-1,0
648,12632,-10204,4432,31,256,-54,-1,-1,0
776,12712,-10072,4432,87,416,-27,-1,-1,0
680,12748,-10080,4432,1,334,63,-1,-1,0
716,12536,-10068,4432,84,428,21,-1,-1,0
676,12572,-10072,4432,113,411,12,-1,-1,0
764,12576,-10328,4432,88,318,-59,-1,-1,0
2336,12564,-9996,4432,121,355,-13,-1,-1,0
2412,12516,-9960,4432,154,423,28,-1,-1,0
2440,12472,-9960,4432,118,396,23,-1,-1,0
2360,12408,-10004,4432,174,422,-10,-1,-1,0
2412,12524,-9964,4432,61,406,22,-1,-1,0
2388,12604,-10048,4432,27,278,-38,-1,-1,0
2460,12472,-10084,4432,61,351,-3,-1,-1,0
2360,12480,-10060,4432,3,323,-29,-1,-1,0
2264,12436,-10012,4432,58,435,52,-1,-1,0
2404,12456,-10100,4432,145,365,-23,-1,-1,0
2304,12460,-10000,4432,89,364,8,-1,-1,0
2376,12476,-10004,4432,29,385,-8,-1,-1,0
2328,12464,-10100,4432,11,278,-7,-1,-1,0
2432,12516,-10044,4432,112,368,-13,-1,-1,0
2372,12496,-10072,4432,16,304,27,-1,-1,0
2224,12604,-10044,4432,55,363,-25,-1,-1,0
2256,12496,-10040,4432,93,367,43,-1,-1,0
2336,12540,-10032,4432,48,349,-26,-1,-1,0
2360,12576,-10032,4432,51,284,4,-1,-1,0
2436,12500,-10016,4432,75,316,2,-1,-1,0
2372,12488,-9896,4432,-10,317,30,-1,-1,0
2548,12536,-9976,4432,-15,136,-44,-1,-1,0
2412,12404,-10104,4432,81,319,-27,-1,-1,0
2268,12468,-10084,4432,50,215,-113,-1,-1,0
2352,12432,-10176,4432,71,332,37,-1,-1,0
-5896,14168,-5148,4432,-586,376,-242,-1,-1,1
-5740,14208,-5044,4432,-230,255,-571,-1,-1,1
6992,12204,-9072,4432,1533,5622,2145,-1,-1,1
6020,12312,-8836,4432,-173,-1284,-85,-1,-1,1
4664,13576,-8536,4432,-120,759,251,-1,-1,1
4684,13064,-8240,4432,448,2267,545,-1,-1,1
4404,13200,-8056,4432,50,1052,177,-1,-1,1
4680,13044,-7900,4432,-16,190,-256,-1,-1,1
4348,13156,-8056,4432,-183,306,-13,-1,-1,1
4624,13540,-8144,4432,4,2029,571,-1,-1,1
4540,13288,-7884,4432,479,2396,674,-1,-1,1
4244,13496,-7984,4432,158,724,341,-1,-1,1
3716,13712,-7428,4432,-246,766,-130,-1,-1,1
4240,13840,-7732,4432,-57,1613,758,-1,-1,1
4200,13664,-7708,4432,223,609,161,-1,-1,1
3772,13660,-7880,4432,643,1722,238,-1,-1,1
3864,13356,-7848,4432,537,1768,456,-1,-1,1
3676,14068,-7460,4432,-720,-185,-352,-1,-1,1
3588,13940,-7776,4432,-74,536,-255,-1,-1,1
3408,14120,-7368,4432,-497,-1007,-614,-1,-1,1
2968,14124,-7564,4432,356,1220,284,-1,-1,1
3308,13952,-7400,4432,-193,521,197,-1,-1,1
3404,13936,-7216,4432,-344,-207,156,-1,-1,1
3600,13964,-7224,4432,-591,-340,-7,-1,-1,1
4328,13864,-7240,4432,-214,543,-124,-1,-1,1
3612,13776,-7208,4432,-364,240,0,-1,-1,1
3564,13916,-7168,4432,-408,-875,-268,-1,-1,1
3916,14120,-6952,4432,-160,890,23,-1,-1,1
3800,14040,-7344,4432,-103,654,455,-1,-1,1
3740,13968,-6972,4432,-275,1776,221,-1,-1,1
3828,14124,-7072,4432,-253,741,-21,-1,-1,1
3624,13808,-7276,4432,-39,391,127,-1,-1,1
3644,14040,-7308,4432,142,796,329,-1,-1,1
3700,14040,-6976,4432,-236,400,-29,-1,-1,1
3884,14004,-7148,4432,-444,1068,311,-1,-1,1
3312,14168,-7076,4432,-201,537,18,-1,-1,1
3468,14100,-6964,4432,151,157,-205,-1,-1,1
3132,14220,-6836,4432,-60,1113,511,-1,-1,1
3376,14144,-6688,4432,495,1535,-41,-1,-1,1
3768,14196,-6648,4432,-197,896,187,-1,-1,1
2804,14192,-6732,4432,138,-1967,-793,-1,-1,1
3508,14264,-6728,4432,304,-327,-301,-1,-1,1
3920,14424,-6796,4432,377,2026,509,-1,-1,1
4172,14396,-6880,4432,58,1331,519,-1,-1,1
3928,14292,-6740,4432,546,1922,507,-1,-1,1
3704,14024,-6888,4432,-62,657,98,-1,-1,1
3712,14276,-6612,4432,-259,97,-226,-1,-1,1
3352,14304,-6960,4432,81,-15,379,-1,-1,1
3128,14504,-7020,4432,-107,95,266,-1,-1,1
3028,14592,-6836,4432,-230,284,238,-1,-1,1
3684,14128,-6348,4432,314,1782,241,-1,-1,1
3708,14316,-6400,4432,-355,95,-76,-1,-1,1
3128,14308,-6516,4432,367,-737,-384,-1,-1,1
3088,14296,-6364,4432,428,2005,721,-1,-1,1
3644,14220,-6452,4432,180,1725,25,-1,-1,1
2364,14204,-6900,4432,-144,-568,-270,-1,-1,1
2548,14500,-7332,4432,245,1338,721,-1,-1,1
1432,14564,-6276,4432,404,1317,1861,-1,-1,1
5012,12076,-9200,4432,934,-2407,-741,-1,-1,1
5716,11848,-9224,4432,-27,-3200,-1107,-1,-1,1
-1356,15260,-5216,4432,-191,1483,507,-1,-1,1
-632,15696,-4084,4432,-178,1441,520,-1,-1,1
3576,11264,-11460,4432,236,168,-79,-1,-1,1
3264,11372,-11228,4432,-530,186,-295,-1,-1,1
2904,11188,-11076,4432,32,16,-617,-1,-1,1
3540,11340,-11364,4432,-663,-1245,-207,-1,-1,1
3440,11488,-11572,4432,-1275,-315,187,-1,-1,1
3304,11364,-11336,4432,-1214,-265,95,-1,-1,1
3584,10840,-11248,4432,-365,305,373,-1,-1,1
2436,11496,-11208,4432,290,332,26,-1,-1,1
2196,11352,-10984,4432,619,1210,-163,-1,-1,1
2112,11672,-11152,4432,-279,680,287,-1,-1,1
3460,1028,-17328,4432,-837,28,134,-1,-1,1
3564,924,-17352,4432,-809,79,172,-1,-1,1
3656,924,-17244,4432,-814,187,219,-1,-1,1
3548,880,-17340,4432,-750,71,157,-1,-1,1
1352,11640,-11368,4432,-55,282,-114,-1,-1,1
1332,11496,-11284,4432,69,242,50,-1,-1,1
1220,11620,-11236,4432,15,621,129,-1,-1,1
1280,11656,-11332,4432,122,-39,-6,-1,-1,1
1204,11572,-11360,4432,64,274,-20,-1,-1,1
1244,11556,-11328,4432,96,61,-45,-1,-1,1
1292,11568,-11368,4432,72,305,-3,-1,-1,1
1220,11568,-11428,4432,84,575,11,-1,-1,1
1196,11620,-11284,4432,24,388,80,-1,-1,1
1212,11564,-11280,4432,90,150,-69,-1,-1,1
1312,11556,-11356,4432,54,401,10,-1,-1,1
1216,11600,-11344,4432,67,254,-94,-1,-1,1
1284,11592,-11304,4432,76,238,-62,-1,-1,1
1188,11752,-11164,4432,134,470,82,-1,-1,1
1192,11524,-11424,4432,95,291,-77,-1,-1,1
1264,11488,-11408,4432,113,304,-22,-1,-1,1
1324,11500,-11408,4432,79,368,-9,-1,-1,1
1212,11632,-11328,4432,70,376,7,-1,-1,1
1200,11608,-11284,4432,61,145,26,-1,-1,1
1216,11628,-11356,4432,43,458,73,-1,-1,1
1288,11576,-11432,4432,157,131,-67,-1,-1,1
1232,11616,-11340,4432,101,14,-44,-1,-1,1
1224,11604,-11384,4432,70,255,-10,-1,-1,1
1088,11512,-11396,4432,73,154,9,-1,-1,1
1628,11632,-11232,4432,74,448,-57,-1,-1,1
1536,11696,-11308,4432,99,257,7,-1,-1,1
1552,11512,-11352,4432,31,471,-22,-1,-1,1
1280,11504,-11432,4432,104,240,20,-1,-1,1
1476,11604,-11252,4432,60,588,8,-1,-1,1
1324,11576,-11256,4432,76,86,57,-1,-1,1
1264,11628,-11392,4432,50,322,26,-1,-1,1
1272,11580,-11400,4432,90,149,68,-1,-1,1
1276,11576,-11396,4432,63,229,-38,-1,-1,1
1296,11548,-11328,4432,50,312,-20,-1,-1,1
1236,11648,-11404,4432,80,217,-30,-1,-1,1
1300,11640,-11280,4432,75,186,12,-1,-1,1
1324,11556,-11364,4432,56,470,37,-1,-1,1
1196,11640,-11340,4432,76,226,-25,-1,-1,1
1196,11656,-11408,4432,112,0,-21,-1,-1,1
1248,11644,-11376,4432,53,347,-49,-1,-1,1
1288,11560,-11328,4432,111,434,16,-1,-1,1
1348,11568,-11292,4432,57,350,-22,-1,-1,1
1284,11564,-11268,4432,60,492,-45,-1,-1,1
1336,11524,-11316,4432,35,349,-58,-1,-1,1
1788,11548,-11332,4432,5,1824,316,-1,-1,1
1272,11552,-11304,4432,66,383,-107,-1,-1,1
2024,11476,-11268,4432,184,1529,784,-1,-1,1
1216,13036,-9380,4464,98,393,-12,-1,-1,0
1320,13092,-9504,4464,36,258,-73,-1,-1,0
1148,13056,-9540,4464,-7,297,27,-1,-1,0
1116,13048,-9388,4464,94,367,32,-1,-1,0
1196,13052,-9524,4464,139,476,36,-1,-1,0
1204,13000,-9408,4464,325,764,33,-1,-1,0
1192,12944,-9500,4464,-3,189,12,-1,-1,0
1188,12956,-9712,4464,149,551,-75,-1,-1,0
1172,12980,-9752,4464,57,203,-58,-1,-1,0
976,12944,-9664,4464,5,317,38,-1,-1,0
1268,13148,-9660,4464,115,433,10,-1,-1,0
1196,13076,-9472,4464,73,278,-62,-1,-1,0
996,13000,-9724,4464,172,411,-64,-1,-1,0
1036,12996,-9688,4464,3,288,-14,-1,-1,0
984,13000,-9552,4464,75,326,116,-1,-1,0
1136,13024,-9612,4464,56,418,-49,-1,-1,0
1012,13108,-9552,4464,19,460,-121,-1,-1,0
1028,12876,-9640,4464,-78,329,253,-1,-1,0
1104,12976,-9608,4464,134,373,-129,-1,-1,0
1196,13112,-9636,4464,158,498,52,-1,-1,0
1040,13004,-9672,4464,51,416,29,-1,-1,0
1136,13008,-9648,4464,9,350,-101,-1,-1,0
1160,12992,-9528,4464,50,298,-2,-1,-1,0
1280,13060,-9676,4464,108,389,4,-1,-1,0
-6160,544,-14724,4464,15,365,-46,-1,-1,0
1196,12956,-9604,4464,20,296,-33,-1,-1,0
-6168,588,-14756,4464,59,378,-49,-1,-1,0
1132,12976,-9548,4464,96,363,69,-1,-1,0
-6200,544,-14648,4464,0,367,-73,-1,-1,0
1300,13040,-9688,4464,3,235,4,-1,-1,0
1176,12956,-9584,4464,7,262,-38,-1,-1,0
-6184,648,-14676,4464,54,340,-23,-1,-1,0
1256,12984,-9616,4464,36,309,-39,-1,-1,0
1256,13008,-9496,4464,-49,211,79,-1,-1,0
-6204,612,-14692,4464,43,373,-59,-1,-1,0
-6200,668,-14656,4464,7,312,-32,-1,-1,0
-6192,584,-14624,4464,47,324,-43,-1,-1,0
1480,12920,-9512,4464,11,289,-71,-1,-1,0
-6228,604,-14628,4464,18,341,-43,-1,-1,0
-6120,604,-14564,4464,44,387,-37,-1,-1,0
-6180,600,-14708,4464,65,345,-29,-1,-1,0
-6204,480,-14476,4464,2,335,-20,-1,-1,0
904,13204,-9448,4464,128,384,43,-1,-1,0
796,13124,-9496,4464,-9,308,45,-1,-1,0
856,13280,-9328,4464,54,367,-33,-1,-1,0
880,13172,-9496,4464,30,315,-43,-1,-1,0
1000,13132,-9468,4464,59,302,-9,-1,-1,0
988,13192,-9344,4464,106,372,-29,-1,-1,0
988,13108,-9488,4464,61,348,19,-1,-1,0
892,13124,-9376,4464,-62,229,-65,-1,-1,0
928,13188,-9492,4464,-40,341,-56,-1,-1,0
948,13140,-9352,4464,32,271,-30,-1,-1,0
892,13048,-9344,4464,79,424,-13,-1,-1,0
968,13112,-9524,4464,-3,511,-109,-1,-1,0
1024,13100,-9504,4464,115,337,-17,-1,-1,0
928,13016,-9596,4464,90,399,-126,-1,-1,0
912,13200,-9320,4464,6,329,44,-1,-1,0
1204,12988,-9484,4464,198,143,-168,-1,-1,0
836,13088,-9416,4464,84,355,-38,-1,-1,0
1160,13044,-9356,4464,111,209,-62,-1,-1,0
1024,13052,-9552,4464,18,331,-42,-1,-1,0
1000,13192,-9576,4464,63,412,-48,-1,-1,0
888,13048,-9448,4464,43,302,-8,-1,-1,0
964,13008,-9436,4464,115,395,15,-1,-1,0
848,13108,-9500,4464,13,288,-35,-1,-1,0
808,13068,-9500,4464,22,296,-7,-1,-1,0
-7092,684,-14344,4464,33,371,-22,-1,-1,0
1040,13132,-9408,4464,67,237,-102,-1,-1,0
884,13068,-9456,4464,12,329,30,-1,-1,0
916,13108,-9496,4464,72,421,92,-1,-1,0
-7084,592,-14228,4464,132,392,-20,-1,-1,0
932,13044,-9416,4464,89,325,39,-1,-1,0
912,13072,-9520,4464,61,358,-35,-1,-1,0
-7092,636,-14312,4464,63,366,-9,-1,-1,0
1016,13004,-9512,4464,188,398,-64,-1,-1,0
1012,13084,-9584,4464,36,371,-59,-1,-1,0
948,13024,-9484,4464,66,342,8,-1,-1,0
-7072,708,-14272,4464,51,376,-38,-1,-1,0
-7120,636,-14244,4464,56,358,-40,-1,-1,0
-7112,656,-14228,4464,-28,336,-53,-1,-1,0
-7032,640,-14252,4464,66,431,-15,-1,-1,0
-7124,616,-14264,4464,28,373,-43,-1,-1,0
-7176,704,-14328,4464,59,374,-17,-1,-1,0
-7140,592,-14240,4464,47,421,-36,-1,-1,0
-7120,680,-14232,4464,113,336,-62,-1,-1,0
984,13032,-9552,4464,29,348,49,-1,-1,0
-7108,628,-14256,4464,23,307,-29,-1,-1,0
-7168,740,-14220,4464,28,394,-21,-1,-1,0
664,12980,-9472,4464,226,303,-175,-1,-1,0
-7004,720,-14400,4464,29,366,-64,-1,-1,0
-7052,700,-14380,4464,58,393,-22,-1,-1,0
-7076,696,-14268,4464,35,327,-45,-1,-1,0
-6976,644,-14264,4464,53,306,-29,-1,-1,0
-7116,648,-14308,4464,96,334,-34,-1,-1,0
-7140,792,-14212,4464,49,305,-22,-1,-1,0
-7076,692,-14300,4464,31,371,6,-1,-1,0
-7088,692,-14272,4464,55,336,-79,-1,-1,0
940,12880,-9636,4464,-38,284,-41,-1,-1,0
-7072,672,-14416,4464,76,431,-31,-1,-1,0
-7024,708,-14404,4464,49,345,-26,-1,-1,0
-7012,660,-14352,4464,-4,399,-30,-1,-1,0
-7164,704,-14304,4464,8,305,-68,-1,-1,0
-7024,648,-14276,4464,57,378,-24,-1,-1,0
-7032,768,-14364,4464,21,410,-19,-1,-1,0
-6976,676,-14384,4464,3,372,-40,-1,-1,0
-7060,648,-14244,4464,59,350,-58,-1,-1,0
-7084,652,-14220,4464,5,366,-16,-1,-1,0
-6968,664,-14308,4464,90,397,-53,-1,-1,0
-6988,672,-14244,4464,22,341,-28,-1,-1,0
-7108,652,-14304,4464,13,415,-40,-1,-1,0
1004,12672,-9812,4464,108,365,5,-1,-1,0
-7104,644,-14224,4464,48,350,-35,-1,-1,0
-7116,700,-14272,4464,31,416,24,-1,-1,0
-7032,788,-14352,4464,29,413,-28,-1,-1,0
-6976,612,-14324,4464,35,335,-42,-1,-1,0
-7004,720,-14364,4464,65,344,-64,-1,-1,0
-7208,644,-14252,4464,12,381,-18,-1,-1,0
1128,12852,-9904,4464,103,332,22,-1,-1,0
-7080,716,-14256,4464,61,383,-38,-1,-1,0
1076,12772,-9952,4464,68,315,-39,-1,-1,0
-7108,720,-14332,4464,26,429,-34,-1,-1,0
1056,12836,-9868,4464,144,453,39,-1,-1,0
1104,12864,-9968,4464,-38,212,20,-1,-1,0
-7024,704,-14348,4464,30,381,-22,-1,-1,0
-7104,700,-14376,4464,123,390,-18,-1,-1,0
-7112,704,-14304,4464,18,353,-25,-1,-1,0
1184,12816,-9908,4464,110,426,16,-1,-1,0
-7160,672,-14180,4464,42,389,-31,-1,-1,0
-7036,584,-14376,4464,69,324,-49,-1,-1,0
932,12704,-9848,4464,65,249,61,-1,-1,0
-7068,704,-14384,4464,50,359,-65,-1,-1,0
-7132,612,-14272,4464,2,346,-58,-1,-1,0
-7128,612,-14404,4464,27,384,-22,-1,-1,0
-7092,700,-14320,4464,-11,387,-50,-1,-1,0
-7000,676,-14308,4464,47,366,-40,-1,-1,0
-7052,656,-14300,4464,-21,351,-64,-1,-1,0
-7032,696,-14324,4464,33,363,-8,-1,-1,0
-7056,588,-14412,4464,62,291,-23,-1,-1,0
-7084,616,-14360,4464,4,360,-15,-1,-1,0
-7056,680,-14348,4464,28,305,-29,-1,-1,0
-7048,704,-14360,4464,-25,354,-40,-1,-1,0
-6992,660,-14388,4464,19,357,-4,-1,-1,0
-7052,648,-14252,4464,17,340,-14,-1,-1,0
-7056,640,-14328,4464,55,372,-5,-1,-1,0
-7112,608,-14312,4464,29,296,7,-1,-1,0
-7144,608,-14332,4464,44,325,-11,-1,-1,0
-7032,596,-14272,4464,46,374,-33,-1,-1,0
-7056,844,-14344,4464,-29,415,-71,-1,-1,0
-7040,564,-14256,4464,84,416,15,-1,-1,0
-7156,568,-14300,4464,57,349,-46,-1,-1,0
-7036,664,-14232,4464,90,347,-31,-1,-1,0
-7052,580,-14272,4464,22,386,-45,-1,-1,0
-6956,624,-14392,4464,45,398,-32,-1,-1,0
-6944,656,-14352,4464,74,420,-16,-1,-1,0
-7000,580,-14364,4464,29,388,-39,-1,-1,0
-7056,604,-14244,4464,13,359,-29,-1,-1,0
-7052,612,-14200,4464,37,326,-41,-1,-1,0
-7076,640,-14320,4464,49,314,-39,-1,-1,0
-7072,700,-14304,4464,65,344,-33,-1,-1,0
-7116,624,-14372,4464,-2,398,-35,-1,-1,0
-7064,664,-14248,4464,54,368,-24,-1,-1,0
-6960,692,-14272,4464,-5,365,-45,-1,-1,0
-7016,612,-14360,4464,43,353,-54,-1,-1,0
-7052,688,-14352,4464,60,364,-36,-1,-1,0
-7044,704,-14288,4464,-27,409,-38,-1,-1,0
1244,12536,-10144,4464,35,393,-50,-1,-1,0
-7140,652,-14268,4464,14,370,-32,-1,-1,0
-7024,612,-14304,4464,33,299,-42,-1,-1,0
-7032,636,-14320,4464,63,329,-60,-1,-1,0
-6976,592,-14388,4464,89,394,-35,-1,-1,0
1176,12580,-10216,4464,69,394,-5,-1,-1,0
-7016,564,-14260,4464,1,363,-34,-1,-1,0
-6956,636,-14412,4464,83,418,-26,-1,-1,0
1256,12648,-10008,4464,14,447,7,-1,-1,0
1204,12656,-10124,4464,78,431,1,-1,-1,0
1104,12704,-10064,4464,-15,298,11,-1,-1,0
1132,12592,-10196,4464,34,308,14,-1,-1,0
1196,12748,-10116,4464,81,289,-123,-1,-1,0
1044,12548,-10080,4464,180,479,31,-1,-1,0
1092,12564,-10096,4464,99,366,-24,-1,-1,0
1128,12612,-10208,4464,36,363,35,-1,-1,0
912,12552,-10184,4464,228,479,-43,-1,-1,0
968,12520,-10296,4464,23,270,107,-1,-1,0
1016,12404,-10368,4464,28,324,27,-1,-1,0
856,12676,-10152,4464,90,321,16,-1,-1,0
-28,13228,-9376,4464,63,245,-35,-1,-1,0
-52,13156,-9324,4464,61,348,17,-1,-1,0
-116,13032,-9336,4464,149,523,-41,-1,-1,0
352,12968,-9636,4464,-8,427,35,-1,-1,0
340,12876,-9636,4464,73,360,84,-1,-1,0
464,12900,-9744,4464,100,303,-68,-1,-1,0
412,12920,-9748,4464,127,405,-38,-1,-1,0
340,12980,-9700,4464,42,328,-66,-1,-1,0
240,12924,-9736,4464,62,313,26,-1,-1,0
392,13008,-9764,4464,114,419,-12,-1,-1,0
364,12976,-9736,4464,38,348,-19,-1,-1,0
296,12856,-9584,4464,124,540,-10,-1,-1,0
524,13068,-9828,4464,309,435,-184,-1,-1,0
576,12692,-10032,4464,28,373,-47,-1,-1,0
532,12740,-10132,4464,-43,312,4,-1,-1,0
680,12648,-10100,4464,-33,456,-33,-1,-1,0
668,12788,-10020,4464,72,367,26,-1,-1,0
568,12656,-10060,4464,-62,275,-92,-1,-1,0
548,12772,-10044,4464,-24,255,-122,-1,-1,0
552,12716,-10024,4464,-31,366,36,-1,-1,0
724,12612,-10156,4464,187,380,17,-1,-1,0
632,12628,-10116,4464,-81,300,-17,-1,-1,0
684,12620,-10064,4464,72,394,-33,-1,-1,0
860,12560,-10088,4464,61,198,-38,-1,-1,0
728,12624,-10072,4464,43,414,-9,-1,-1,0
772,12676,-10200,4464,39,350,-15,-1,-1,0
612,12696,-10172,4464,-1,201,-21,-1,-1,0
760,12768,-10028,4464,87,346,37,-1,-1,0
664,12640,-10088,4464,-1,259,37,-1,-1,0
760,12588,-10140,4464,103,324,26,-1,-1,0
808,12624,-10228,4464,84,287,-107,-1,-1,0
860,12632,-10028,4464,70,217,-24,-1,-1,0
644,12668,-10124,4464,51,396,9,-1,-1,0
748,12664,-10172,4464,162,407,-88,-1,-1,0
616,12680,-10068,4464,104,260,-64,-1,-1,0
684,12772,-9860,4464,-31,313,-87,-1,-1,0
2416,12544,-10088,4464,90,438,21,-1,-1,0
2488,12564,-10072,4464,103,245,-51,-1,-1,0
2468,12536,-10020,4464,110,395,40,-1,-1,0
2424,12520,-10036,4464,107,359,-6,-1,-1,0
2452,12556,-10032,4464,105,424,-6,-1,-1,0
2224,12548,-10004,4464,-55,230,-110,-1,-1,0
2364,12460,-10012,4464,86,299,-24,-1,-1,0
2292,12496,-9932,4464,0,321,-35,-1,-1,0
2352,12448,-10128,4464,71,338,-1,-1,-1,0
2396,12516,-10120,4464,66,449,45,-1,-1,0
2352,12448,-9940,4464,15,350,12,-1,-1,0
2380,12496,-10056,4464,114,296,-16,-1,-1,0
2328,12504,-9976,4464,29,265,-92,-1,-1,0
2368,12536,-10000,4464,57,471,67,-1,-1,0
2432,12544,-10072,4464,78,432,-16,-1,-1,0
2304,12468,-10068,4464,62,298,7,-1,-1,0
2436,12508,-10120,4464,53,394,-37,-1,-1,0
2400,12432,-10092,4464,101,399,4,-1,-1,0
2360,12384,-10064,4464,75,440,50,-1,-1,0
1892,12360,-10308,4464,-101,436,49,-1,-1,0
5340,12764,-8596,4464,461,-889,-1013,-1,-1,1
3912,13760,-7252,4464,-646,-2011,-688,-1,-1,1
3372,13532,-7916,4464,-496,-17,-111,-1,-1,1
3816,13360,-7812,4464,214,1265,337,-1,-1,1
3372,13984,-8244,4464,135,718,223,-1,-1,1
3324,13584,-7284,4464,235,544,20,-1,-1,1
3104,14080,-7532,4464,-133,28,164,-1,-1,1
3880,14164,-7844,4464,-79,866,60,-1,-1,1
4240,13696,-7476,4464,211,1526,199,-1,-1,1
3656,14024,-7012,4464,-487,-849,-520,-1,-1,1
4088,14236,-7608,4464,517,1601,554,-1,-1,1
3708,13856,-7132,4464,464,1471,334,-1,-1,1
3272,14308,-7536,4464,-13,507,224,-1,-1,1
3828,13836,-7040,4464,-108,1396,264,-1,-1,1
3756,13688,-7076,4464,132,-652,-435,-1,-1,1
3924,13764,-7296,4464,-111,1373,420,-1,-1,1
3948,13836,-6848,4464,505,1531,489,-1,-1,1
3636,14132,-6952,4464,209,677,73,-1,-1,1
3976,13912,-6924,4464,773,2573,494,-1,-1,1
4004,14116,-7120,4464,-295,606,194,-1,-1,1
3696,14200,-6808,4464,-224,137,102,-1,-1,1
3148,14332,-6620,4464,24,-1259,-485,-1,-1,1
3404,14560,-6996,4464,-38,-118,260,-1,-1,1
3664,14072,-6884,4464,-152,1333,205,-1,-1,1
3352,14200,-6492,4464,236,1333,12,-1,-1,1
3828,13952,-6524,4464,629,2329,453,-1,-1,1
3524,14180,-6832,4464,-344,408,216,-1,-1,1
3236,14188,-6624,4464,249,1478,-14,-1,-1,1
3892,14256,-6748,4464,34,1396,284,-1,-1,1
3736,14312,-6400,4464,-161,-1032,-495,-1,-1,1
3988,14456,-6632,4464,-22,948,400,-1,-1,1
3324,14592,-6988,4464,-30,-72,310,-1,-1,1
3880,14464,-6520,4464,9,916,109,-1,-1,1
3232,14508,-7156,4464,200,11,-22,-1,-1,1
3688,14032,-6760,4464,73,782,71,-1,-1,1
3520,14152,-6788,4464,307,1130,123,-1,-1,1
3912,13792,-6348,4464,645,2700,562,-1,-1,1
3460,14220,-6768,4464,281,-295,-449,-1,-1,1
3496,14436,-6580,4464,-154,-1009,-293,-1,-1,1
3736,14104,-6700,4464,-120,364,80,-1,-1,1
3620,14228,-6360,4464,-254,-261,-283,-1,-1,1
3696,14376,-6660,4464,423,2079,643,-1,-1,1
3384,14440,-6820,4464,204,1261,659,-1,-1,1
3644,13980,-6764,4464,-67,1365,153,-1,-1,1
3636,14048,-6516,4464,417,1833,207,-1,-1,1
3664,14176,-6364,4464,703,2283,564,-1,-1,1
3380,14428,-6800,4464,167,334,364,-1,-1,1
3628,14280,-6688,4464,264,-129,-277,-1,-1,1
3404,14552,-6836,4464,348,657,359,-1,-1,1
3820,14172,-6576,4464,-129,562,72,-1,-1,1
3848,14048,-6632,4464,-148,126,12,-1,-1,1
4172,14356,-6624,4464,138,1541,293,-1,-1,1
3792,14268,-6504,4464,295,811,-316,-1,-1,1
3476,14324,-6692,4464,-56,-1488,-811,-1,-1,1
3212,14368,-6640,4464,435,1728,-42,-1,-1,1
3808,14528,-6580,4464,-517,-302,-452,-1,-1,1
1908,14512,-7120,4464,60,-1724,-623,-1,-1,1
2036,15164,-6252,4464,-123,1229,-167,-1,-1,1
512,15216,-6436,4464,159,445,233,-1,-1,1
792,15124,-6164,4464,-716,-200,-131,-1,-1,1
200,14816,-6200,4464,570,37,-564,-1,-1,1
328,14680,-5992,4464,290,1208,106,-1,-1,1
7168,11724,-10164,4464,-189,-114,-521,-1,-1,1
5872,11472,-9560,4464,-1212,-1723,-881,-1,-1,1
5692,12208,-8572,4464,-263,-1046,-341,-1,-1,1
-844,15272,-4084,4464,685,619,-124,-1,-1,1
-1160,15596,-4140,4464,300,30,-73,-1,-1,1
-868,15672,-3996,4464,-77,-165,-4,-1,-1,1
-624,15584,-4348,4464,154,621,58,-1,-1,1
3776,11020,-11064,4464,1242,626,66,-1,-1,1
3700,11136,-10972,4464,1479,768,68,-1,-1,1
3356,11180,-11516,4464,-265,564,300,-1,-1,1
3356,10936,-10940,4464,1024,1263,-37,-1,-1,1
3548,964,-17284,4464,-843,-92,142,-1,-1,1
3440,944,-17280,4464,-737,-120,135,-1,-1,1
3564,992,-17260,4464,-775,226,191,-1,-1,1
3672,1068,-17232,4464,-787,259,177,-1,-1,1
3564,1016,-17296,4464,-710,20,183,-1,-1,1
3632,996,-17316,4464,-759,153,163,-1,-1,1
3532,1004,-17368,4464,-763,136,190,-1,-1,1
3548,988,-17316,4464,-812,116,217,-1,-1,1
3576,856,-17372,4464,-781,-122,147,-1,-1,1
3576,1116,-17176,4464,-813,804,429,-1,-1,1
3848,600,-17284,4464,-876,-321,119,-1,-1,1
1476,11720,-11260,4464,12,205,52,-1,-1,1
1284,11604,-11420,4464,78,353,29,-1,-1,1
1356,11608,-11340,4464,29,419,-10,-1,-1,1
1228,11520,-11300,4464,27,312,-2,-1,-1,1
1224,11568,-11200,4464,156,298,-29,-1,-1,1
1148,11500,-11380,4464,47,432,69,-1,-1,1
1236,11588,-11376,4464,32,447,38,-1,-1,1
1212,11584,-11380,4464,76,439,15,-1,-1,1
1228,11552,-11312,4464,45,259,-35,-1,-1,1
1256,11492,-11316,4464,42,487,33,-1,-1,1
1220,11584,-11308,4464,33,563,35,-1,-1,1
1240,11544,-11372,4464,45,337,4,-1,-1,1
1188,11604,-11304,4464,42,151,-59,-1,-1,1
1432,11532,-11328,4464,-53,798,76,-1,-1,1
1464,11752,-11152,4464,23,1357,304,-1,-1,1
1112,11592,-11252,4464,156,-392,-380,-1,-1,1
1316,11664,-11308,4464,92,184,-88,-1,-1,1
1308,11584,-11400,4464,38,60,9,-1,-1,1
1292,11564,-11400,4464,88,477,-22,-1,-1,1
1420,11512,-11392,4464,62,212,138,-1,-1,1
1388,11616,-11376,4464,11,759,-22,-1,-1,1
1452,11616,-11380,4464,101,298,-21,-1,-1,1
1260,11664,-11360,4464,128,-37,-43,-1,-1,1
1244,11592,-11324,4464,83,413,15,-1,-1,1
1192,11584,-11268,4464,36,198,3,-1,-1,1
1240,11564,-11388,4464,65,391,-62,-1,-1,1
1196,11480,-11356,4464,73,250,-49,-1,-1,1
1188,11504,-11360,4464,32,151,-29,-1,-1,1
1316,11524,-11308,4464,26,499,-38,-1,-1,1
1172,11624,-11308,4464,34,534,38,-1,-1,1
1260,11560,-11252,4464,56,173,-17,-1,-1,1
1168,11596,-11272,4464,53,433,5,-1,-1,1
1172,11620,-11348,4464,42,677,18,-1,-1,1
1192,11576,-11280,4464,26,399,37,-1,-1,1
1276,11608,-11332,4464,41,521,-9,-1,-1,1
1248,11476,-11332,4464,62,140,-17,-1,-1,1
1192,11616,-11312,4464,53,500,-30,-1,-1,1
1460,11584,-11348,4464,111,290,19,-1,-1,1
1504,11516,-11444,4464,193,66,-19,-1,-1,1
1296,11576,-11392,4464,26,255,-37,-1,-1,1
1304,11732,-11220,4464,135,374,93,-1,-1,1
1248,11616,-11256,4464,27,276,-6,-1,-1,1
1364,11496,-11344,4464,-18,980,222,-1,-1,1
1324,11636,-11276,4464,60,148,-82,-1,-1,1
1208,11496,-11324,4464,38,459,111,-1,-1,1
1284,11560,-11308,4464,114,-230,-85,-1,-1,1
1340,11604,-11272,4464,84,-128,-9,-1,-1,1
1288,11436,-11356,4464,20,817,17,-1,-1,1
1248,11576,-11344,4464,30,350,49,-1,-1,1
1084,11352,-11564,4464,17,1130,106,-1,-1,1
1292,11456,-11508,4464,151,10,-17,-1,-1,1
1196,11484,-11460,4464,134,-49,69,-1,-1,1
5136,9112,-12248,4464,-208,-3651,-761,-1,-1,1
996,12696,-9544,4480,119,334,4,-1,-1,0
1016,13008,-9680,4480,-128,197,9,-1,-1,0
1280,13012,-9612,4480,66,286,2,-1,-1,0
1516,13420,-9728,4480,98,714,-260,-1,-1,0
1180,13020,-9656,4480,164,589,-33,-1,-1,0
1012,12892,-9516,4480,134,297,148,-1,-1,0
1128,12952,-9624,4480,25,334,35,-1,-1,0
1116,12944,-9464,4480,127,382,14,-1,-1,0
1340,13028,-9552,4480,30,259,-56,-1,-1,0
1360,12936,-9628,4480,100,365,9,-1,-1,0
1208,13020,-9632,4480,63,431,11,-1,-1,0
1448,12924,-9572,4480,17,269,66,-1,-1,0
-6256,660,-14712,4480,-1,351,-46,-1,-1,0
-6268,620,-14720,4480,40,365,-9,-1,-1,0
-6060,636,-14640,4480,44,395,82,-1,-1,0
832,13176,-9336,4480,62,458,-37,-1,-1,0
852,13096,-9376,4480,23,414,0,-1,-1,0
924,13184,-9452,4480,45,261,-2,-1,-1,0
948,13084,-9432,4480,54,391,97,-1,-1,0
900,13124,-9324,4480,37,354,-14,-1,-1,0
968,13124,-9404,4480,30,403,8,-1,-1,0
944,13092,-9412,4480,68,378,-25,-1,-1,0
928,13064,-9388,4480,63,338,-22,-1,-1,0
872,13136,-9272,4480,4,366,108,-1,-1,0
1028,13160,-9396,4480,11,336,-45,-1,-1,0
1064,13104,-9412,4480,96,415,-28,-1,-1,0
916,13080,-9304,4480,136,373,-70,-1,-1,0
992,13036,-9448,4480,91,274,-73,-1,-1,0
848,13036,-9468,4480,28,370,84,-1,-1,0
972,13164,-9504,4480,-13,402,-46,-1,-1,0
920,13080,-9464,4480,29,299,29,-1,-1,0
976,13084,-9476,4480,-50,328,-6,-1,-1,0
1020,13068,-9496,4480,60,324,-100,-1,-1,0
844,13036,-9476,4480,18,361,58,-1,-1,0
880,13020,-9464,4480,-81,274,46,-1,-1,0
884,13052,-9452,4480,-7,354,-22,-1,-1,0
916,13096,-9496,4480,117,432,-57,-1,-1,0
940,13100,-9536,4480,52,317,-31,-1,-1,0
964,13108,-9572,4480,-17,340,52,-1,-1,0
944,13072,-9556,4480,69,307,-48,-1,-1,0
952,13164,-9588,4480,-27,368,-80,-1,-1,0
1040,13036,-9440,4480,159,284,-46,-1,-1,0
992,13084,-9528,4480,64,373,55,-1,-1,0
1068,13136,-9460,4480,121,340,-79,-1,-1,0
940,13100,-9560,4480,123,355,-23,-1,-1,0
-7088,688,-14224,4480,11,349,-49,-1,-1,0
1000,12992,-9536,4480,81,351,13,-1,-1,0
-7120,704,-14228,4480,25,387,-24,-1,-1,0
912,13108,-9572,4480,48,399,-9,-1,-1,0
-7216,676,-14196,4480,5,406,-9,-1,-1,0
1024,13024,-9468,4480,97,341,-49,-1,-1,0
908,13004,-9600,4480,56,265,5,-1,-1,0
948,13084,-9524,4480,36,415,11,-1,-1,0
916,13056,-9512,4480,64,319,24,-1,-1,0
1028,12968,-9488,4480,79,275,-22,-1,-1,0
-7072,700,-14208,4480,30,363,-6,-1,-1,0
852,13000,-9620,4480,-17,524,-31,-1,-1,0
-7036,592,-14316,4480,-13,326,-72,-1,-1,0
-7024,596,-14388,4480,80,326,-38,-1,-1,0
860,12964,-9696,4480,-24,272,16,-1,-1,0
860,12948,-9528,4480,87,349,153,-1,-1,0
888,12860,-9668,4480,226,404,-12,-1,-1,0
-7096,744,-14356,4480,6,310,-49,-1,-1,0
-7100,772,-14296,4480,71,405,-52,-1,-1,0
-7124,644,-14340,4480,-3,297,-39,-1,-1,0
-7208,672,-14216,4480,18,314,-36,-1,-1,0
-7032,764,-14328,4480,18,383,-41,-1,-1,0
-7076,740,-14332,4480,-43,374,-57,-1,-1,0
-7100,680,-14324,4480,69,341,-15,-1,-1,0
-6980,668,-14428,4480,46,362,-1,-1,-1,0
-7100,656,-14452,4480,27,323,10,-1,-1,0
972,12740,-9832,4480,-26,285,-12,-1,-1,0
-7120,708,-14228,4480,45,381,-32,-1,-1,0
-7044,668,-14240,4480,35,405,-20,-1,-1,0
-7092,692,-14244,4480,131,342,-60,-1,-1,0
-7112,656,-14200,4480,64,344,-25,-1,-1,0
-7056,628,-14196,4480,-51,404,33,-1,-1,0
-7044,672,-14276,4480,90,333,-66,-1,-1,0
-7176,692,-14316,4480,6,339,-50,-1,-1,0
1100,12668,-10084,4480,84,385,-93,-1,-1,0
-7016,576,-14272,4480,92,330,-54,-1,-1,0
-7168,648,-14288,4480,65,353,-6,-1,-1,0
-7076,680,-14264,4480,72,358,-25,-1,-1,0
-6984,724,-14376,4480,75,377,-67,-1,-1,0
-7064,580,-14348,4480,25,313,-42,-1,-1,0
-7064,668,-14304,4480,45,366,-13,-1,-1,0
1060,12656,-10044,4480,135,350,13,-1,-1,0
-7016,668,-14264,4480,88,349,-41,-1,-1,0
-6944,720,-14296,4480,36,384,-41,-1,-1,0
-6984,640,-14240,4480,57,315,-50,-1,-1,0
-7048,656,-14324,4480,-16,360,-10,-1,-1,0
-7080,692,-14336,4480,20,319,-46,-1,-1,0
1224,12560,-10124,4480,178,405,-45,-1,-1,0
-7024,696,-14356,4480,37,335,-55,-1,-1,0
-7000,720,-14212,4480,75,359,-29,-1,-1,0
-7048,688,-14260,4480,52,394,-37,-1,-1,0
-6972,632,-14296,4480,100,409,-47,-1,-1,0
-7020,632,-14284,4480,21,305,-35,-1,-1,0
-7084,696,-14384,4480,20,290,-66,-1,-1,0
-6976,620,-14344,4480,58,320,-21,-1,-1,0
-7060,676,-14316,4480,87,341,-12,-1,-1,0
-7016,668,-14364,4480,24,318,-6,-1,-1,0
1204,12664,-9952,4480,119,256,-59,-1,-1,0
1084,12596,-10128,4480,-20,290,1,-1,-1,0
1096,12648,-10096,4480,54,456,78,-1,-1,0
1120,12560,-10020,4480,89,353,30,-1,-1,0
1060,12644,-10128,4480,44,331,32,-1,-1,0
1280,12560,-10192,4480,54,263,-65,-1,-1,0
1280,12580,-10172,4480,121,332,26,-1,-1,0
1132,12604,-10164,4480,147,511,37,-1,-1,0
1048,12548,-10272,4480,117,312,-43,-1,-1,0
960,12576,-10200,4480,7,336,46,-1,-1,0
996,12512,-10332,4480,5,338,-25,-1,-1,0
1092,12536,-10076,4480,-18,236,13,-1,-1,0
996,12560,-10328,4480,73,435,-37,-1,-1,0
1120,12508,-10360,4480,66,288,-4,-1,-1,0
1028,12532,-10252,4480,121,330,82,-1,-1,0
948,12440,-10300,4480,109,366,-50,-1,-1,0
964,12348,-10292,4480,35,386,-31,-1,-1,0
980,12348,-10268,4480,99,328,47,-1,-1,0
1020,12432,-10340,4480,130,312,-14,-1,-1,0
752,12612,-10008,4480,42,404,17,-1,-1,0
768,12728,-10100,4480,-16,313,-20,-1,-1,0
748,12664,-10068,4480,60,318,11,-1,-1,0
828,12668,-9912,4480,88,302,3,-1,-1,0
732,12616,-10048,4480,27,221,-38,-1,-1,0
804,12740,-10148,4480,-25,312,1,-1,-1,0
696,12640,-9928,4480,-28,236,37,-1,-1,0
488,12736,-9920,4480,-29,-147,-70,-1,-1,0
68,13048,-9248,4480,52,399,-177,-1,-1,0
-136,13252,-9416,4480,229,662,-263,-1,-1,0
-52,13120,-9500,4480,77,441,-20,-1,-1,0
196,13160,-9576,4480,-182,103,-244,-1,-1,0
176,13020,-9744,4480,-19,255,-19,-1,-1,0
316,12992,-9828,4480,113,453,-23,-1,-1,0
-5976,856,-16420,4480,-740,277,202,-1,-1,0
336,12908,-9696,4480,-5,325,6,-1,-1,0
288,12920,-9576,4480,122,474,124,-1,-1,0
576,12912,-9804,4480,150,333,-44,-1,-1,0
384,12964,-9776,4480,3,328,8,-1,-1,0
416,12900,-9668,4480,100,294,23,-1,-1,0
360,12880,-9648,4480,123,506,-1,-1,-1,0
348,12932,-9780,4480,85,299,-13,-1,-1,0
364,12944,-9676,4480,93,329,19,-1,-1,0
344,13040,-9780,4480,-1,420,-46,-1,-1,0
472,12908,-9744,4480,260,536,-106,-1,-1,0
404,13024,-9812,4480,-18,334,4,-1,-1,0
256,12852,-9596,4480,111,409,31,-1,-1,0
336,12816,-9644,4480,-22,281,56,-1,-1,0
316,12756,-9836,4480,-30,223,113,-1,-1,0
460,12624,-9940,4480,84,290,-55,-1,-1,0
476,12588,-10076,4480,152,265,175,-1,-1,0
416,12708,-9924,4480,178,486,-79,-1,-1,0
604,12600,-10136,4480,70,418,-23,-1,-1,0
544,12700,-10012,4480,22,374,30,-1,-1,0
632,12692,-10036,4480,63,345,-54,-1,-1,0
484,12636,-10156,4480,34,288,141,-1,-1,0
668,12636,-10208,4480,80,368,-15,-1,-1,0
704,12660,-10116,4480,70,318,32,-1,-1,0
724,12716,-10268,4480,52,384,11,-1,-1,0
772,12632,-10212,4480,-68,226,62,-1,-1,0
728,12656,-10056,4480,136,340,17,-1,-1,0
620,12624,-10136,4480,-7,278,19,-1,-1,0
644,12552,-10000,4480,-39,289,-23,-1,-1,0
704,12612,-10056,4480,108,384,16,-1,-1,0
744,12620,-10140,4480,5,352,9,-1,-1,0
684,12672,-10132,4480,15,450,-5,-1,-1,0
656,12600,-10104,4480,64,365,54,-1,-1,0
652,12596,-10072,4480,86,443,-26,-1,-1,0
728,12516,-10268,4480,119,290,-48,-1,-1,0
616,12524,-10264,4480,13,351,-4,-1,-1,0
464,12520,-10240,4480,-18,257,147,-1,-1,0
344,12564,-10196,4480,106,361,184,-1,-1,0
548,12436,-10344,4480,90,426,-101,-1,-1,0
536,12508,-10364,4480,37,403,23,-1,-1,0
780,12556,-10316,4480,8,180,63,-1,-1,0
764,12672,-9880,4480,-80,777,-84,-1,-1,0
2356,12488,-10080,4480,46,372,15,-1,-1,0
2400,12368,-10028,4480,36,319,10,-1,-1,0
2328,12448,-10084,4480,229,282,-84,-1,-1,0
2360,12404,-10028,4480,225,504,8,-1,-1,0
2532,12408,-9984,4480,128,454,31,-1,-1,0
2500,12572,-10036,4480,-1,163,-78,-1,-1,0
2532,12488,-10012,4480,-7,400,13,-1,-1,0
2272,12552,-10160,4480,18,205,9,-1,-1,0
2408,12468,-10088,4480,16,289,-27,-1,-1,0
2300,12332,-10140,4480,52,418,-20,-1,-1,0
4392,13464,-8020,4480,-131,-47,-260,-1,-1,1
3324,13740,-7692,4480,-275,-1577,-657,-1,-1,1
2920,13936,-7388,4480,-211,-658,-215,-1,-1,1
2988,13792,-7248,4480,453,1329,218,-1,-1,1
3884,14040,-7168,4480,-383,-607,-425,-1,-1,1
3776,13632,-7208,4480,353,1240,-70,-1,-1,1
3892,13768,-7268,4480,647,1251,503,-1,-1,1
3816,14056,-7260,4480,-285,102,-299,-1,-1,1
3616,13820,-7464,4480,-70,-717,-83,-1,-1,1
4056,13832,-7184,4480,-273,749,-137,-1,-1,1
3220,14188,-7300,4480,224,-687,-441,-1,-1,1
3556,14136,-6952,4480,-250,-605,-163,-1,-1,1
3912,14064,-6988,4480,-189,385,-169,-1,-1,1
3028,14284,-7108,4480,115,655,-10,-1,-1,1
3304,14248,-6988,4480,-393,-1565,-706,-1,-1,1
3368,13988,-7040,4480,-349,822,33,-1,-1,1
3460,14036,-6880,4480,15,755,18,-1,-1,1
3092,14408,-6356,4480,-319,-2707,-1020,-1,-1,1
3328,14192,-6852,4480,399,467,68,-1,-1,1
3744,14328,-6684,4480,-129,912,38,-1,-1,1
3700,14244,-6560,4480,28,1127,205,-1,-1,1
3936,14052,-6448,4480,276,1388,262,-1,-1,1
3756,13960,-6688,4480,148,1248,217,-1,-1,1
3428,14516,-7032,4480,159,1027,386,-1,-1,1
3404,14216,-6756,4480,153,-129,-530,-1,-1,1
3544,14380,-6924,4480,331,649,328,-1,-1,1
3952,14036,-6380,4480,158,777,-37,-1,-1,1
3476,14372,-6532,4480,-241,-663,-93,-1,-1,1
3168,14240,-6832,4480,-15,-284,-6,-1,-1,1
3548,14296,-6500,4480,133,804,-9,-1,-1,1
3592,14360,-6292,4480,-190,-1459,-528,-1,-1,1
4096,14060,-6440,4480,311,2460,704,-1,-1,1
2968,14380,-6688,4480,167,-1112,-776,-1,-1,1
3812,14360,-6324,4480,-302,-385,-370,-1,-1,1
3908,14080,-6152,4480,758,2173,936,-1,-1,1
3400,14336,-6416,4480,94,592,-175,-1,-1,1
2808,14572,-6700,4480,-766,-554,-362,-1,-1,1
2068,13952,-6920,4480,762,1479,308,-1,-1,1
2380,14268,-7004,4480,-147,-1693,-612,-1,-1,1
240,15108,-6392,4480,157,371,262,-1,-1,1
824,14820,-6276,4480,244,1237,314,-1,-1,1
556,14832,-6088,4480,138,446,-425,-1,-1,1
708,14752,-6040,4480,-449,1582,191,-1,-1,1
6064,11184,-9828,4480,840,1690,626,-1,-1,1
5596,12264,-8712,4480,449,1368,67,-1,-1,1
5448,12304,-8684,4480,164,1103,-258,-1,-1,1
5040,12272,-8708,4480,132,-3975,-1143,-1,-1,1
4776,12644,-9416,4480,207,1941,353,-1,-1,1
4804,12988,-8272,4480,351,1874,401,-1,-1,1
-492,15480,-5872,4480,516,-301,-215,-1,-1,1
-444,15076,-5400,4480,-959,186,-140,-1,-1,1
-1860,15180,-4452,4480,461,434,-365,-1,-1,1
-928,15764,-4312,4480,432,49,33,-1,-1,1
3284,11096,-10884,4480,1269,640,-338,-1,-1,1
3528,11276,-11808,4480,-1783,-62,507,-1,-1,1
3608,11624,-11576,4480,-1413,14,334,-1,-1,1
2840,11360,-11256,4480,-129,397,-302,-1,-1,1
3608,11572,-12172,4480,-1529,-432,254,-1,-1,1
2232,11600,-11384,4480,542,975,-94,-1,-1,1
2320,11472,-11292,4480,-9,197,-140,-1,-1,1
3556,1000,-17228,4480,-826,173,205,-1,-1,1
3644,1004,-17372,4480,-776,-43,172,-1,-1,1
3620,1100,-17292,4480,-774,397,199,-1,-1,1
3592,1024,-17292,4480,-755,186,182,-1,-1,1
3708,924,-17132,4480,-941,-656,98,-1,-1,1
4544,916,-17172,4480,-699,681,307,-1,-1,1
1392,11620,-11316,4480,50,226,13,-1,-1,1
1308,11500,-11396,4480,148,1,-26,-1,-1,1
1208,11616,-11376,4480,57,74,-87,-1,-1,1
1332,11596,-11288,4480,-2,589,10,-1,-1,1
1212,11588,-11288,4480,90,-15,-114,-1,-1,1
1244,11580,-11348,4480,45,238,19,-1,-1,1
1220,11560,-11332,4480,45,554,141,-1,-1,1
1300,11620,-11240,4480,0,568,50,-1,-1,1
1224,11584,-11300,4480,77,49,-17,-1,-1,1
1172,11700,-11204,4480,33,573,39,-1,-1,1
1292,11640,-11248,4480,92,128,-71,-1,-1,1
1364,11576,-11220,4480,101,229,-72,-1,-1,1
1344,11556,-11252,4480,74,67,60,-1,-1,1
1352,11556,-11260,4480,90,562,22,-1,-1,1
1204,11572,-11268,4480,73,367,-69,-1,-1,1
1192,11572,-11188,4480,76,215,-47,-1,-1,1
1336,11584,-11272,4480,20,513,2,-1,-1,1
1160,11604,-11292,4480,63,334,13,-1,-1,1
1204,11632,-11372,4480,77,223,-42,-1,-1,1
1196,11624,-11392,4480,24,308,-78,-1,-1,1
1260,11600,-11404,4480,104,413,47,-1,-1,1
1832,11628,-11340,4480,149,974,191,-1,-1,1
1376,11484,-11444,4480,97,137,-18,-1,-1,1
1300,11564,-11344,4480,80,104,-21,-1,-1,1
1300,11628,-11288,4480,15,746,127,-1,-1,1
1372,11568,-11284,4480,168,-310,-98,-1,-1,1
1208,11576,-11344,4480,48,451,71,-1,-1,1
1352,11516,-11328,4480,-22,486,55,-1,-1,1
1496,11548,-11392,4480,53,1362,255,-1,-1,1
860,11488,-11308,4480,95,500,51,-1,-1,1
1472,11600,-11300,4480,53,641,-43,-1,-1,1
1332,11624,-11372,4480,31,321,-19,-1,-1,1
1372,11612,-11184,4480,68,136,87,-1,-1,1
-52,11656,-11216,4480,-39,1531,218,-1,-1,1
1248,11608,-11308,4480,-5,422,116,-1,-1,1
1780,11520,-11300,4480,-113,3904,-376,-1,-1,1
1240,11580,-11360,4480,18,594,66,-1,-1,1
6252,9196,-11400,4480,97,171,-236,-1,-1,1
1196,13056,-9452,4496,31,259,5,-1,-1,0
1240,13040,-9496,4496,-15,300,-125,-1,-1,0
1104,12864,-9536,4496,155,385,-27,-1,-1,0
984,13080,-9564,4496,2,271,31,-1,-1,0
932,12952,-9644,4496,1,329,16,-1,-1,0
1144,12976,-9612,4496,-32,272,93,-1,-1,0
1120,12900,-9556,4496,132,469,87,-1,-1,0
1064,12940,-9584,4496,20,397,-1,-1,-1,0
1236,12952,-9588,4496,72,309,-54,-1,-1,0
1124,12952,-9568,4496,59,431,119,-1,-1,0
1172,13000,-9532,4496,64,400,29,-1,-1,0
1240,13056,-9588,4496,85,444,8,-1,-1,0
1272,12904,-9680,4496,36,319,-19,-1,-1,0
-6188,592,-14680,4496,-13,346,-42,-1,-1,0
1264,13024,-9656,4496,83,439,32,-1,-1,0
1332,12984,-9628,4496,11,311,-65,-1,-1,0
1332,12924,-9576,4496,73,399,65,-1,-1,0
1264,12928,-9540,4496,94,402,42,-1,-1,0
1356,12936,-9616,4496,51,357,-47,-1,-1,0
-6160,472,-14636,4496,37,361,-41,-1,-1,0
1632,12992,-9408,4496,-29,283,-59,-1,-1,0
-6148,532,-14660,4496,-7,244,-20,-1,-1,0
-6252,604,-16360,4496,-864,-197,234,-1,-1,0
960,13208,-9364,4496,-55,299,15,-1,-1,0
904,13104,-9392,4496,-12,299,-2,-1,-1,0
856,13108,-9444,4496,64,366,-48,-1,-1,0
1036,13004,-9520,4496,87,332,9,-1,-1,0
1036,13024,-9420,4496,38,269,-8,-1,-1,0
988,13004,-9452,4496,122,365,-36,-1,-1,0
980,13124,-9608,4496,29,319,13,-1,-1,0
1028,13084,-9484,4496,54,163,-48,-1,-1,0
936,13064,-9428,4496,178,502,99,-1,-1,0
1128,13056,-9532,4496,72,336,5,-1,-1,0
996,13088,-9512,4496,12,358,28,-1,-1,0
880,13068,-9332,4496,88,353,5,-1,-1,0
872,13016,-9312,4496,76,329,-17,-1,-1,0
1004,13128,-9576,4496,62,360,-48,-1,-1,0
936,13068,-9412,4496,20,315,-49,-1,-1,0
920,13108,-9416,4496,-33,329,8,-1,-1,0
1032,13072,-9496,4496,45,391,-74,-1,-1,0
1088,13024,-9464,4496,107,364,17,-1,-1,0
900,13024,-9468,4496,95,392,-2,-1,-1,0
952,13076,-9472,4496,42,480,-27,-1,-1,0
864,13160,-9524,4496,-1,369,101,-1,-1,0
904,13092,-9604,4496,22,350,-53,-1,-1,0
836,13036,-9504,4496,53,380,39,-1,-1,0
928,13108,-9552,4496,26,403,22,-1,-1,0
796,13020,-9544,4496,132,358,-41,-1,-1,0
868,12980,-9532,4496,125,342,-5,-1,-1,0
1008,13064,-9436,4496,-9,338,45,-1,-1,0
960,13040,-9612,4496,110,392,25,-1,-1,0
948,13076,-9564,4496,40,262,-2,-1,-1,0
996,13068,-9460,4496,111,339,51,-1,-1,0
868,13076,-9456,4496,50,363,9,-1,-1,0
1004,13104,-9432,4496,36,382,-15,-1,-1,0
1040,13084,-9472,4496,113,316,-16,-1,-1,0
932,13132,-9432,4496,27,401,-10,-1,-1,0
952,13072,-9412,4496,107,325,-50,-1,-1,0
948,13076,-9512,4496,83,450,12,-1,-1,0
1060,13132,-9452,4496,54,330,-4,-1,-1,0
1040,13164,-9560,4496,119,538,-33,-1,-1,0
1004,13104,-9468,4496,78,242,1,-1,-1,0
912,13184,-9480,4496,46,419,14,-1,-1,0
1028,13112,-9452,4496,78,289,-55,-1,-1,0
940,13024,-9376,4496,209,428,-46,-1,-1,0
992,13136,-9500,4496,61,329,-29,-1,-1,0
904,13080,-9472,4496,24,312,18,-1,-1,0
944,12976,-9440,4496,100,336,-12,-1,-1,0
1096,13024,-9472,4496,132,257,-93,-1,-1,0
1116,13072,-9612,4496,81,311,-32,-1,-1,0
1012,13040,-9496,4496,97,379,-19,-1,-1,0
988,13044,-9376,4496,159,415,-1,-1,-1,0
1036,13044,-9384,4496,101,408,36,-1,-1,0
908,13052,-9496,4496,-12,356,-45,-1,-1,0
924,13060,-9580,4496,85,359,-12,-1,-1,0
996,13060,-9608,4496,173,519,2,-1,-1,0
1032,13136,-9568,4496,25,321,-39,-1,-1,0
-7120,564,-14172,4496,77,338,-54,-1,-1,0
864,13036,-9460,4496,36,418,36,-1,-1,0
-7076,676,-14276,4496,37,374,-23,-1,-1,0
1012,12824,-9588,4496,172,547,-92,-1,-1,0
-7060,700,-14280,4496,111,378,-78,-1,-1,0
1140,13012,-9580,4496,79,284,-555,-1,-1,0
920,12792,-9292,4496,310,736,-116,-1,-1,0
840,12940,-9712,4496,69,328,-32,-1,-1,0
704,12896,-9688,4496,111,404,5,-1,-1,0
964,12924,-9668,4496,43,279,26,-1,-1,0
924,13020,-9648,4496,51,350,-16,-1,-1,0
868,12932,-9704,4496,157,332,38,-1,-1,0
960,13028,-9664,4496,25,283,-34,-1,-1,0
856,12960,-9664,4496,116,385,148,-1,-1,0
-7108,636,-14360,4496,50,318,-81,-1,-1,0
824,12824,-9728,4496,238,479,-19,-1,-1,0
1060,12956,-9632,4496,47,373,-33,-1,-1,0
1076,12916,-9760,4496,94,327,18,-1,-1,0
-7160,588,-14328,4496,100,315,-48,-1,-1,0
-7076,724,-14392,4496,22,359,-27,-1,-1,0
1092,12880,-9604,4496,212,452,-80,-1,-1,0
-7132,728,-14316,4496,33,357,-16,-1,-1,0
-7060,704,-14228,4496,24,366,-19,-1,-1,0
1112,12872,-9784,4496,93,187,-7,-1,-1,0
820,12752,-9716,4496,67,426,-30,-1,-1,0
1020,12852,-9832,4496,77,472,21,-1,-1,0
-6980,704,-14276,4496,55,364,-28,-1,-1,0
-7084,732,-14244,4496,39,342,-73,-1,-1,0
-7120,692,-14256,4496,-67,303,-17,-1,-1,0
1000,12896,-9760,4496,13,222,32,-1,-1,0
-7040,712,-14256,4496,51,369,-5,-1,-1,0
816,12852,-9756,4496,-60,300,28,-1,-1,0
1052,12796,-9720,4496,165,447,26,-1,-1,0
-7100,780,-14252,4496,32,352,-52,-1,-1,0
-7016,640,-14276,4496,30,393,-56,-1,-1,0
-7040,696,-14352,4496,28,336,-42,-1,-1,0
1032,12784,-9776,4496,158,330,-74,-1,-1,0
1104,12748,-9952,4496,212,345,11,-1,-1,0
1056,12672,-9736,4496,-8,258,-40,-1,-1,0
1036,12848,-9948,4496,172,538,43,-1,-1,0
1092,12780,-9820,4496,11,199,-100,-1,-1,0
964,12764,-9944,4496,47,448,-49,-1,-1,0
-7148,700,-14296,4496,-5,311,-31,-1,-1,0
-7028,604,-14312,4496,71,377,-31,-1,-1,0
1044,12680,-9772,4496,176,371,-52,-1,-1,0
-6972,644,-14172,4496,146,439,-21,-1,-1,0
1068,12756,-9816,4496,-18,287,2,-1,-1,0
1056,12688,-9884,4496,81,253,-22,-1,-1,0
-7088,688,-14292,4496,25,414,-55,-1,-1,0
936,12740,-9876,4496,50,454,46,-1,-1,0
-7108,716,-14276,4496,67,403,-31,-1,-1,0
1012,12868,-9952,4496,22,548,13,-1,-1,0
1028,12832,-9836,4496,27,322,-5,-1,-1,0
1032,12744,-10060,4496,38,272,27,-1,-1,0
-7080,660,-14248,4496,60,319,-84,-1,-1,0
-7020,688,-14336,4496,10,344,-74,-1,-1,0
-7020,684,-14292,4496,35,327,-34,-1,-1,0
-7132,676,-14344,4496,10,372,2,-1,-1,0
-7016,636,-14256,4496,47,328,-62,-1,-1,0
-7108,644,-14364,4496,52,328,-55,-1,-1,0
988,12728,-9948,4496,-29,360,44,-1,-1,0
-7040,644,-14344,4496,14,345,-45,-1,-1,0
-7172,672,-14388,4496,19,302,1,-1,-1,0
-7036,660,-14336,4496,18,356,-40,-1,-1,0
-7040,660,-14308,4496,64,370,-55,-1,-1,0
-7068,644,-14328,4496,35,369,-13,-1,-1,0
-7120,612,-14348,4496,-24,293,-35,-1,-1,0
-7112,652,-14220,4496,70,343,-42,-1,-1,0
1108,12752,-9948,4496,-5,427,3,-1,-1,0
-7000,616,-14220,4496,63,292,-49,-1,-1,0
-7072,668,-14288,4496,10,325,-49,-1,-1,0
-7072,608,-14452,4496,43,406,-25,-1,-1,0
-7052,636,-14272,4496,55,346,-30,-1,-1,0
-6912,660,-14228,4496,26,425,-24,-1,-1,0
-6988,640,-14304,4496,48,406,-31,-1,-1,0
1152,12700,-9980,4496,-21,281,-32,-1,-1,0
-7060,680,-14304,4496,72,367,-56,-1,-1,0
-7132,592,-14256,4496,-37,434,-71,-1,-1,0
-7104,648,-14236,4496,23,323,-28,-1,-1,0
1160,12644,-9972,4496,99,332,-25,-1,-1,0
-7064,616,-14344,4496,37,360,-38,-1,-1,0
-7000,656,-14260,4496,45,415,-21,-1,-1,0
-7040,608,-14256,4496,35,322,-22,-1,-1,0
-7048,588,-14216,4496,46,287,-31,-1,-1,0
-7056,596,-14268,4496,15,355,-24,-1,-1,0
1156,12680,-10152,4496,83,361,-44,-1,-1,0
-7024,644,-14272,4496,51,369,-21,-1,-1,0
-7044,652,-14328,4496,61,325,-48,-1,-1,0
-7036,592,-14272,4496,41,347,-83,-1,-1,0
-6984,692,-14416,4496,57,327,-30,-1,-1,0
-7052,632,-14320,4496,29,376,-37,-1,-1,0
1072,12596,-9920,4496,125,343,69,-1,-1,0
-7060,596,-14268,4496,28,303,-26,-1,-1,0
-7044,644,-14268,4496,58,368,-1,-1,-1,0
-7032,628,-14336,4496,26,370,-42,-1,-1,0
-7132,672,-14404,4496,10,399,-18,-1,-1,0
1156,12632,-10064,4496,64,356,-15,-1,-1,0
-7040,680,-14256,4496,-23,356,-33,-1,-1,0
1192,12644,-9988,4496,134,337,51,-1,-1,0
-7080,636,-14264,4496,40,315,-29,-1,-1,0
-7048,740,-14328,4496,-9,363,-39,-1,-1,0
-7092,628,-14440,4496,3,287,-20,-1,-1,0
1264,12612,-10056,4496,187,406,27,-1,-1,0
-6952,652,-14352,4496,56,422,-65,-1,-1,0
-7060,628,-14308,4496,-24,335,-32,-1,-1,0
-7092,528,-14292,4496,24,366,-14,-1,-1,0
-7024,668,-14324,4496,12,415,-39,-1,-1,0
-7020,636,-14332,4496,46,351,-21,-1,-1,0
-7076,644,-14276,4496,57,349,-69,-1,-1,0
1156,12576,-10016,4496,102,350,-77,-1,-1,0
-7012,664,-14364,4496,42,340,-42,-1,-1,0
1080,12644,-10180,4496,-13,314,24,-1,-1,0
-6992,712,-14448,4496,23,377,14,-1,-1,0
1176,12708,-10056,4496,34,388,11,-1,-1,0
-7052,584,-14316,4496,69,366,-53,-1,-1,0
1188,12556,-10112,4496,67,378,-46,-1,-1,0
-7084,588,-14232,4496,-10,356,-68,-1,-1,0
